id,trialNum,time,width,height,webaudio,browser,browser_version,mobile,os,fullscreen,vsync_rate,webcam,microphone,trial_type,trial_index,time_elapsed,internal_node_id,condition,robotCondition,success,timeout,failed_images,failed_audio,failed_video,rt,response,question_order,view_history,stimulus,trial,salLabel,promptLabel,imgNum,buttonOrder,sal,buttonPaths,responseCompare,labelCompare
29,0,1657293679472,1364,625,TRUE,chrome,103.0.5060,FALSE,Windows 10,TRUE,60.18,FALSE,FALSE,browser-check,0,1015,0.0-0.0,1,opp,NA,NA,,,,NA,,,,NA,NA,NA,NA,NA,,NA,,NA,NA
29,0,1657293679472,1364,625,TRUE,chrome,103.0.5060,FALSE,Windows 10,TRUE,59.94,FALSE,FALSE,browser-check,1,2021,0.0-1.0,1,opp,NA,NA,,,,NA,,,,NA,NA,NA,NA,NA,,NA,,NA,NA
29,0,1657293679472,NA,NA,NA,NA,NA,NA,NA,NA,NA,NA,NA,preload,2,8125,0.0-2.0,1,opp,TRUE,FALSE,,,,NA,,,,NA,NA,NA,NA,NA,,NA,,NA,NA
29,0,1657293679472,NA,NA,NA,NA,NA,NA,NA,NA,NA,NA,NA,survey-multi-choice,3,13191,0.0-3.0,1,opp,NA,NA,,,,5064,,,,NA,NA,NA,NA,NA,,NA,,NA,NA
29,0,1657293679472,NA,NA,NA,NA,NA,NA,NA,NA,NA,NA,NA,survey-text,4,16000,0.0-4.0,1,opp,NA,NA,,,,2803,,,,NA,NA,NA,NA,NA,,NA,,NA,NA
29,0,1657293679472,NA,NA,NA,NA,NA,NA,NA,NA,NA,NA,NA,instructions,5,76653,0.0-5.0,1,opp,NA,NA,,,,60653,,,,NA,NA,NA,NA,NA,,NA,,NA,NA
29,0,1657293679472,NA,NA,NA,NA,NA,NA,NA,NA,NA,NA,NA,html-button-response,6,85653,0.0-6.0-0.0-0.0,1,opp,NA,NA,,,,8997,,,,"<p><span>Aike <i class=""fa-solid fa-robot robot1  inline-icon""></i></span> thinks the image is <span>safe <i class=""fa-solid fa-seedling safe  inline-icon""></i></span> and tells us where it is looking at.</p><div class=""robot-label-img""><div class=""stack-img""><i class=""fa-solid fa-robot robot1 fa-3x stack-img-robot""></i><span class=""fa-stack fa-2x stack-img-bubble""><i class=""fa-solid fa-comment fa-stack-2x""></i><i class=""fa-solid fa-seedling safe fa-stack-1x""></i></span></div><img src=/static/stimuli/ax_sal_2.svg></div><div class=""prompt""><div class=""stack-img""><i class=""fa-brands fa-android robot2 fa-3x stack-img-robot""></i><span class=""fa-stack fa-2x stack-img-bubble""><i class=""fa-solid fa-comment fa-stack-2x""></i><i class=""fa-solid fa-biohazard toxic fa-stack-1x""></i></span></div></div>",practice,safe,toxic,2,,/static/stimuli/ax_sal_2.svg,,same,opp
29,0,1657293679472,NA,NA,NA,NA,NA,NA,NA,NA,NA,NA,NA,html-button-response,7,91645,0.0-6.0-0.0-0.1,1,opp,NA,NA,,,,5991,,,,"<p><span>Aike <i class=""fa-solid fa-robot robot1  inline-icon""></i></span> thinks the image is <span>toxic <i class=""fa-solid fa-biohazard toxic  inline-icon""></i></span> and tells us where it is looking at.</p><div class=""robot-label-img""><div class=""stack-img""><i class=""fa-solid fa-robot robot1 fa-3x stack-img-robot""></i><span class=""fa-stack fa-2x stack-img-bubble""><i class=""fa-solid fa-comment fa-stack-2x""></i><i class=""fa-solid fa-biohazard toxic fa-stack-1x""></i></span></div><img src=/static/stimuli/ax_sal_3.svg></div><div class=""prompt""><div class=""stack-img""><i class=""fa-brands fa-android robot2 fa-3x stack-img-robot""></i><span class=""fa-stack fa-2x stack-img-bubble""><i class=""fa-solid fa-comment fa-stack-2x""></i><i class=""fa-solid fa-seedling safe fa-stack-1x""></i></span></div></div>",practice,toxic,safe,3,,/static/stimuli/ax_sal_3.svg,,same,opp
29,0,1657293679472,NA,NA,NA,NA,NA,NA,NA,NA,NA,NA,NA,html-button-response,8,93613,0.0-6.0-0.0-0.2,1,opp,NA,NA,,,,1966,,,,"<p><span>Aike <i class=""fa-solid fa-robot robot1  inline-icon""></i></span> thinks the image is <span>safe <i class=""fa-solid fa-seedling safe  inline-icon""></i></span> and tells us where it is looking at.</p><div class=""robot-label-img""><div class=""stack-img""><i class=""fa-solid fa-robot robot1 fa-3x stack-img-robot""></i><span class=""fa-stack fa-2x stack-img-bubble""><i class=""fa-solid fa-comment fa-stack-2x""></i><i class=""fa-solid fa-seedling safe fa-stack-1x""></i></span></div><img src=/static/stimuli/ax_sal_4.svg></div><div class=""prompt""><div class=""stack-img""><i class=""fa-brands fa-android robot2 fa-3x stack-img-robot""></i><span class=""fa-stack fa-2x stack-img-bubble""><i class=""fa-solid fa-comment fa-stack-2x""></i><i class=""fa-solid fa-biohazard toxic fa-stack-1x""></i></span></div></div>",practice,safe,toxic,4,,/static/stimuli/ax_sal_4.svg,,same,opp
29,0,1657293679472,NA,NA,NA,NA,NA,NA,NA,NA,NA,NA,NA,instructions,9,95212,0.0-6.0-1.0,1,opp,NA,NA,,,,1599,,,,NA,NA,NA,NA,NA,,NA,,NA,NA
29,0,1657293679472,NA,NA,NA,NA,NA,NA,NA,NA,NA,NA,NA,html-button-response,10,96763,0.0-7.0-0.0,1,opp,NA,NA,,,,1550,,,,"<p><span>Aike <i class=""fa-solid fa-robot robot1  inline-icon""></i></span> thinks the image is <span>safe <i class=""fa-solid fa-seedling safe  inline-icon""></i></span> and tells us where it is looking at.</p><div class=""robot-label-img""><div class=""stack-img""><i class=""fa-solid fa-robot robot1 fa-3x stack-img-robot""></i><span class=""fa-stack fa-2x stack-img-bubble""><i class=""fa-solid fa-comment fa-stack-2x""></i><i class=""fa-solid fa-seedling safe fa-stack-1x""></i></span></div><img src=/static/stimuli/ax_sal_49.svg></div><div class=""prompt""><div class=""stack-img""><i class=""fa-brands fa-android robot2 fa-3x stack-img-robot""></i><span class=""fa-stack fa-2x stack-img-bubble""><i class=""fa-solid fa-comment fa-stack-2x""></i><i class=""fa-solid fa-biohazard toxic fa-stack-1x""></i></span></div></div>",results,safe,toxic,49,,/static/stimuli/ax_sal_49.svg,,same,opp
29,0,1657293679472,NA,NA,NA,NA,NA,NA,NA,NA,NA,NA,NA,html-button-response,11,99117,0.0-7.0-0.1,1,opp,NA,NA,,,,2351,,,,"<p><span>Aike <i class=""fa-solid fa-robot robot1  inline-icon""></i></span> thinks the image is <span>safe <i class=""fa-solid fa-seedling safe  inline-icon""></i></span> and tells us where it is looking at.</p><div class=""robot-label-img""><div class=""stack-img""><i class=""fa-solid fa-robot robot1 fa-3x stack-img-robot""></i><span class=""fa-stack fa-2x stack-img-bubble""><i class=""fa-solid fa-comment fa-stack-2x""></i><i class=""fa-solid fa-seedling safe fa-stack-1x""></i></span></div><img src=/static/stimuli/ax_sal_13.svg></div><div class=""prompt""><div class=""stack-img""><i class=""fa-brands fa-android robot2 fa-3x stack-img-robot""></i><span class=""fa-stack fa-2x stack-img-bubble""><i class=""fa-solid fa-comment fa-stack-2x""></i><i class=""fa-solid fa-biohazard toxic fa-stack-1x""></i></span></div></div>",results,safe,toxic,13,,/static/stimuli/ax_sal_13.svg,,opp,opp
29,0,1657293679472,NA,NA,NA,NA,NA,NA,NA,NA,NA,NA,NA,html-button-response,12,100716,0.0-7.0-0.2,1,opp,NA,NA,,,,1598,,,,"<p><span>Aike <i class=""fa-solid fa-robot robot1  inline-icon""></i></span> thinks the image is <span>toxic <i class=""fa-solid fa-biohazard toxic  inline-icon""></i></span> and tells us where it is looking at.</p><div class=""robot-label-img""><div class=""stack-img""><i class=""fa-solid fa-robot robot1 fa-3x stack-img-robot""></i><span class=""fa-stack fa-2x stack-img-bubble""><i class=""fa-solid fa-comment fa-stack-2x""></i><i class=""fa-solid fa-biohazard toxic fa-stack-1x""></i></span></div><img src=/static/stimuli/ax_sal_28.svg></div><div class=""prompt""><div class=""stack-img""><i class=""fa-brands fa-android robot2 fa-3x stack-img-robot""></i><span class=""fa-stack fa-2x stack-img-bubble""><i class=""fa-solid fa-comment fa-stack-2x""></i><i class=""fa-solid fa-seedling safe fa-stack-1x""></i></span></div></div>",results,toxic,safe,28,,/static/stimuli/ax_sal_28.svg,,opp,opp
29,0,1657293679472,NA,NA,NA,NA,NA,NA,NA,NA,NA,NA,NA,html-button-response,13,104213,0.0-7.0-0.3,1,opp,NA,NA,,,,3496,,,,"<p><span>Aike <i class=""fa-solid fa-robot robot1  inline-icon""></i></span> thinks the image is <span>toxic <i class=""fa-solid fa-biohazard toxic  inline-icon""></i></span> and tells us where it is looking at.</p><div class=""robot-label-img""><div class=""stack-img""><i class=""fa-solid fa-robot robot1 fa-3x stack-img-robot""></i><span class=""fa-stack fa-2x stack-img-bubble""><i class=""fa-solid fa-comment fa-stack-2x""></i><i class=""fa-solid fa-biohazard toxic fa-stack-1x""></i></span></div><img src=/static/stimuli/ax_sal_21.svg></div><div class=""prompt""><div class=""stack-img""><i class=""fa-brands fa-android robot2 fa-3x stack-img-robot""></i><span class=""fa-stack fa-2x stack-img-bubble""><i class=""fa-solid fa-comment fa-stack-2x""></i><i class=""fa-solid fa-seedling safe fa-stack-1x""></i></span></div></div>",results,toxic,safe,21,,/static/stimuli/ax_sal_21.svg,,same,opp
29,0,1657293679472,NA,NA,NA,NA,NA,NA,NA,NA,NA,NA,NA,html-button-response,14,106828,0.0-7.0-0.4,1,opp,NA,NA,,,,2612,,,,"<p><span>Aike <i class=""fa-solid fa-robot robot1  inline-icon""></i></span> thinks the image is <span>toxic <i class=""fa-solid fa-biohazard toxic  inline-icon""></i></span> and tells us where it is looking at.</p><div class=""robot-label-img""><div class=""stack-img""><i class=""fa-solid fa-robot robot1 fa-3x stack-img-robot""></i><span class=""fa-stack fa-2x stack-img-bubble""><i class=""fa-solid fa-comment fa-stack-2x""></i><i class=""fa-solid fa-biohazard toxic fa-stack-1x""></i></span></div><img src=/static/stimuli/ax_sal_18.svg></div><div class=""prompt""><div class=""stack-img""><i class=""fa-brands fa-android robot2 fa-3x stack-img-robot""></i><span class=""fa-stack fa-2x stack-img-bubble""><i class=""fa-solid fa-comment fa-stack-2x""></i><i class=""fa-solid fa-seedling safe fa-stack-1x""></i></span></div></div>",results,toxic,safe,18,,/static/stimuli/ax_sal_18.svg,,same,opp
29,0,1657293679472,NA,NA,NA,NA,NA,NA,NA,NA,NA,NA,NA,html-button-response,15,109356,0.0-7.0-0.5,1,opp,NA,NA,,,,2528,,,,"<p><span>Aike <i class=""fa-solid fa-robot robot1  inline-icon""></i></span> thinks the image is <span>toxic <i class=""fa-solid fa-biohazard toxic  inline-icon""></i></span> and tells us where it is looking at.</p><div class=""robot-label-img""><div class=""stack-img""><i class=""fa-solid fa-robot robot1 fa-3x stack-img-robot""></i><span class=""fa-stack fa-2x stack-img-bubble""><i class=""fa-solid fa-comment fa-stack-2x""></i><i class=""fa-solid fa-biohazard toxic fa-stack-1x""></i></span></div><img src=/static/stimuli/ax_sal_24.svg></div><div class=""prompt""><div class=""stack-img""><i class=""fa-brands fa-android robot2 fa-3x stack-img-robot""></i><span class=""fa-stack fa-2x stack-img-bubble""><i class=""fa-solid fa-comment fa-stack-2x""></i><i class=""fa-solid fa-seedling safe fa-stack-1x""></i></span></div></div>",results,toxic,safe,24,,/static/stimuli/ax_sal_24.svg,,same,opp
29,0,1657293679472,NA,NA,NA,NA,NA,NA,NA,NA,NA,NA,NA,html-button-response,16,111373,0.0-7.0-0.6,1,opp,NA,NA,,,,2015,,,,"<p><span>Aike <i class=""fa-solid fa-robot robot1  inline-icon""></i></span> thinks the image is <span>toxic <i class=""fa-solid fa-biohazard toxic  inline-icon""></i></span> and tells us where it is looking at.</p><div class=""robot-label-img""><div class=""stack-img""><i class=""fa-solid fa-robot robot1 fa-3x stack-img-robot""></i><span class=""fa-stack fa-2x stack-img-bubble""><i class=""fa-solid fa-comment fa-stack-2x""></i><i class=""fa-solid fa-biohazard toxic fa-stack-1x""></i></span></div><img src=/static/stimuli/ax_sal_37.svg></div><div class=""prompt""><div class=""stack-img""><i class=""fa-brands fa-android robot2 fa-3x stack-img-robot""></i><span class=""fa-stack fa-2x stack-img-bubble""><i class=""fa-solid fa-comment fa-stack-2x""></i><i class=""fa-solid fa-seedling safe fa-stack-1x""></i></span></div></div>",results,toxic,safe,37,,/static/stimuli/ax_sal_37.svg,,same,opp
29,0,1657293679472,NA,NA,NA,NA,NA,NA,NA,NA,NA,NA,NA,html-button-response,17,112876,0.0-7.0-0.7,1,opp,NA,NA,,,,1502,,,,"<p><span>Aike <i class=""fa-solid fa-robot robot1  inline-icon""></i></span> thinks the image is <span>toxic <i class=""fa-solid fa-biohazard toxic  inline-icon""></i></span> and tells us where it is looking at.</p><div class=""robot-label-img""><div class=""stack-img""><i class=""fa-solid fa-robot robot1 fa-3x stack-img-robot""></i><span class=""fa-stack fa-2x stack-img-bubble""><i class=""fa-solid fa-comment fa-stack-2x""></i><i class=""fa-solid fa-biohazard toxic fa-stack-1x""></i></span></div><img src=/static/stimuli/ax_sal_30.svg></div><div class=""prompt""><div class=""stack-img""><i class=""fa-brands fa-android robot2 fa-3x stack-img-robot""></i><span class=""fa-stack fa-2x stack-img-bubble""><i class=""fa-solid fa-comment fa-stack-2x""></i><i class=""fa-solid fa-seedling safe fa-stack-1x""></i></span></div></div>",results,toxic,safe,30,,/static/stimuli/ax_sal_30.svg,,same,opp
29,0,1657293679472,NA,NA,NA,NA,NA,NA,NA,NA,NA,NA,NA,html-button-response,18,114372,0.0-7.0-0.8,1,opp,NA,NA,,,,1495,,,,"<p><span>Aike <i class=""fa-solid fa-robot robot1  inline-icon""></i></span> thinks the image is <span>toxic <i class=""fa-solid fa-biohazard toxic  inline-icon""></i></span> and tells us where it is looking at.</p><div class=""robot-label-img""><div class=""stack-img""><i class=""fa-solid fa-robot robot1 fa-3x stack-img-robot""></i><span class=""fa-stack fa-2x stack-img-bubble""><i class=""fa-solid fa-comment fa-stack-2x""></i><i class=""fa-solid fa-biohazard toxic fa-stack-1x""></i></span></div><img src=/static/stimuli/ax_sal_36.svg></div><div class=""prompt""><div class=""stack-img""><i class=""fa-brands fa-android robot2 fa-3x stack-img-robot""></i><span class=""fa-stack fa-2x stack-img-bubble""><i class=""fa-solid fa-comment fa-stack-2x""></i><i class=""fa-solid fa-seedling safe fa-stack-1x""></i></span></div></div>",results,toxic,safe,36,,/static/stimuli/ax_sal_36.svg,,same,opp
29,0,1657293679472,NA,NA,NA,NA,NA,NA,NA,NA,NA,NA,NA,html-button-response,19,116396,0.0-7.0-0.9,1,opp,NA,NA,,,,2023,,,,"<p><span>Aike <i class=""fa-solid fa-robot robot1  inline-icon""></i></span> thinks the image is <span>safe <i class=""fa-solid fa-seedling safe  inline-icon""></i></span> and tells us where it is looking at.</p><div class=""robot-label-img""><div class=""stack-img""><i class=""fa-solid fa-robot robot1 fa-3x stack-img-robot""></i><span class=""fa-stack fa-2x stack-img-bubble""><i class=""fa-solid fa-comment fa-stack-2x""></i><i class=""fa-solid fa-seedling safe fa-stack-1x""></i></span></div><img src=/static/stimuli/ax_sal_35.svg></div><div class=""prompt""><div class=""stack-img""><i class=""fa-brands fa-android robot2 fa-3x stack-img-robot""></i><span class=""fa-stack fa-2x stack-img-bubble""><i class=""fa-solid fa-comment fa-stack-2x""></i><i class=""fa-solid fa-biohazard toxic fa-stack-1x""></i></span></div></div>",results,safe,toxic,35,,/static/stimuli/ax_sal_35.svg,,same,opp
29,0,1657293679472,NA,NA,NA,NA,NA,NA,NA,NA,NA,NA,NA,html-button-response,20,118292,0.0-7.0-0.10,1,opp,NA,NA,,,,1895,,,,"<p><span>Aike <i class=""fa-solid fa-robot robot1  inline-icon""></i></span> thinks the image is <span>safe <i class=""fa-solid fa-seedling safe  inline-icon""></i></span> and tells us where it is looking at.</p><div class=""robot-label-img""><div class=""stack-img""><i class=""fa-solid fa-robot robot1 fa-3x stack-img-robot""></i><span class=""fa-stack fa-2x stack-img-bubble""><i class=""fa-solid fa-comment fa-stack-2x""></i><i class=""fa-solid fa-seedling safe fa-stack-1x""></i></span></div><img src=/static/stimuli/ax_sal_45.svg></div><div class=""prompt""><div class=""stack-img""><i class=""fa-brands fa-android robot2 fa-3x stack-img-robot""></i><span class=""fa-stack fa-2x stack-img-bubble""><i class=""fa-solid fa-comment fa-stack-2x""></i><i class=""fa-solid fa-biohazard toxic fa-stack-1x""></i></span></div></div>",results,safe,toxic,45,,/static/stimuli/ax_sal_45.svg,,opp,opp
29,0,1657293679472,NA,NA,NA,NA,NA,NA,NA,NA,NA,NA,NA,html-button-response,21,119556,0.0-7.0-0.11,1,opp,NA,NA,,,,1262,,,,"<p><span>Aike <i class=""fa-solid fa-robot robot1  inline-icon""></i></span> thinks the image is <span>toxic <i class=""fa-solid fa-biohazard toxic  inline-icon""></i></span> and tells us where it is looking at.</p><div class=""robot-label-img""><div class=""stack-img""><i class=""fa-solid fa-robot robot1 fa-3x stack-img-robot""></i><span class=""fa-stack fa-2x stack-img-bubble""><i class=""fa-solid fa-comment fa-stack-2x""></i><i class=""fa-solid fa-biohazard toxic fa-stack-1x""></i></span></div><img src=/static/stimuli/ax_sal_25.svg></div><div class=""prompt""><div class=""stack-img""><i class=""fa-brands fa-android robot2 fa-3x stack-img-robot""></i><span class=""fa-stack fa-2x stack-img-bubble""><i class=""fa-solid fa-comment fa-stack-2x""></i><i class=""fa-solid fa-seedling safe fa-stack-1x""></i></span></div></div>",results,toxic,safe,25,,/static/stimuli/ax_sal_25.svg,,same,opp
29,0,1657293679472,NA,NA,NA,NA,NA,NA,NA,NA,NA,NA,NA,html-button-response,22,121332,0.0-7.0-0.12,1,opp,NA,NA,,,,1775,,,,"<p><span>Aike <i class=""fa-solid fa-robot robot1  inline-icon""></i></span> thinks the image is <span>toxic <i class=""fa-solid fa-biohazard toxic  inline-icon""></i></span> and tells us where it is looking at.</p><div class=""robot-label-img""><div class=""stack-img""><i class=""fa-solid fa-robot robot1 fa-3x stack-img-robot""></i><span class=""fa-stack fa-2x stack-img-bubble""><i class=""fa-solid fa-comment fa-stack-2x""></i><i class=""fa-solid fa-biohazard toxic fa-stack-1x""></i></span></div><img src=/static/stimuli/ax_sal_16.svg></div><div class=""prompt""><div class=""stack-img""><i class=""fa-brands fa-android robot2 fa-3x stack-img-robot""></i><span class=""fa-stack fa-2x stack-img-bubble""><i class=""fa-solid fa-comment fa-stack-2x""></i><i class=""fa-solid fa-seedling safe fa-stack-1x""></i></span></div></div>",results,toxic,safe,16,,/static/stimuli/ax_sal_16.svg,,same,opp
29,0,1657293679472,NA,NA,NA,NA,NA,NA,NA,NA,NA,NA,NA,html-button-response,23,123365,0.0-7.0-0.13,1,opp,NA,NA,,,,2032,,,,"<p><span>Aike <i class=""fa-solid fa-robot robot1  inline-icon""></i></span> thinks the image is <span>safe <i class=""fa-solid fa-seedling safe  inline-icon""></i></span> and tells us where it is looking at.</p><div class=""robot-label-img""><div class=""stack-img""><i class=""fa-solid fa-robot robot1 fa-3x stack-img-robot""></i><span class=""fa-stack fa-2x stack-img-bubble""><i class=""fa-solid fa-comment fa-stack-2x""></i><i class=""fa-solid fa-seedling safe fa-stack-1x""></i></span></div><img src=/static/stimuli/ax_sal_51.svg></div><div class=""prompt""><div class=""stack-img""><i class=""fa-brands fa-android robot2 fa-3x stack-img-robot""></i><span class=""fa-stack fa-2x stack-img-bubble""><i class=""fa-solid fa-comment fa-stack-2x""></i><i class=""fa-solid fa-biohazard toxic fa-stack-1x""></i></span></div></div>",results,safe,toxic,51,,/static/stimuli/ax_sal_51.svg,,same,opp
29,0,1657293679472,NA,NA,NA,NA,NA,NA,NA,NA,NA,NA,NA,html-button-response,24,125684,0.0-7.0-0.14,1,opp,NA,NA,,,,2318,,,,"<p><span>Aike <i class=""fa-solid fa-robot robot1  inline-icon""></i></span> thinks the image is <span>toxic <i class=""fa-solid fa-biohazard toxic  inline-icon""></i></span> and tells us where it is looking at.</p><div class=""robot-label-img""><div class=""stack-img""><i class=""fa-solid fa-robot robot1 fa-3x stack-img-robot""></i><span class=""fa-stack fa-2x stack-img-bubble""><i class=""fa-solid fa-comment fa-stack-2x""></i><i class=""fa-solid fa-biohazard toxic fa-stack-1x""></i></span></div><img src=/static/stimuli/ax_sal_58.svg></div><div class=""prompt""><div class=""stack-img""><i class=""fa-brands fa-android robot2 fa-3x stack-img-robot""></i><span class=""fa-stack fa-2x stack-img-bubble""><i class=""fa-solid fa-comment fa-stack-2x""></i><i class=""fa-solid fa-seedling safe fa-stack-1x""></i></span></div></div>",results,toxic,safe,58,,/static/stimuli/ax_sal_58.svg,,same,opp
29,0,1657293679472,NA,NA,NA,NA,NA,NA,NA,NA,NA,NA,NA,html-button-response,25,127428,0.0-7.0-0.15,1,opp,NA,NA,,,,1743,,,,"<p><span>Aike <i class=""fa-solid fa-robot robot1  inline-icon""></i></span> thinks the image is <span>toxic <i class=""fa-solid fa-biohazard toxic  inline-icon""></i></span> and tells us where it is looking at.</p><div class=""robot-label-img""><div class=""stack-img""><i class=""fa-solid fa-robot robot1 fa-3x stack-img-robot""></i><span class=""fa-stack fa-2x stack-img-bubble""><i class=""fa-solid fa-comment fa-stack-2x""></i><i class=""fa-solid fa-biohazard toxic fa-stack-1x""></i></span></div><img src=/static/stimuli/ax_sal_41.svg></div><div class=""prompt""><div class=""stack-img""><i class=""fa-brands fa-android robot2 fa-3x stack-img-robot""></i><span class=""fa-stack fa-2x stack-img-bubble""><i class=""fa-solid fa-comment fa-stack-2x""></i><i class=""fa-solid fa-seedling safe fa-stack-1x""></i></span></div></div>",results,toxic,safe,41,,/static/stimuli/ax_sal_41.svg,,same,opp
29,0,1657293679472,NA,NA,NA,NA,NA,NA,NA,NA,NA,NA,NA,html-button-response,26,130781,0.0-7.0-0.16,1,opp,NA,NA,,,,3351,,,,"<p><span>Aike <i class=""fa-solid fa-robot robot1  inline-icon""></i></span> thinks the image is <span>safe <i class=""fa-solid fa-seedling safe  inline-icon""></i></span> and tells us where it is looking at.</p><div class=""robot-label-img""><div class=""stack-img""><i class=""fa-solid fa-robot robot1 fa-3x stack-img-robot""></i><span class=""fa-stack fa-2x stack-img-bubble""><i class=""fa-solid fa-comment fa-stack-2x""></i><i class=""fa-solid fa-seedling safe fa-stack-1x""></i></span></div><img src=/static/stimuli/ax_sal_46.svg></div><div class=""prompt""><div class=""stack-img""><i class=""fa-brands fa-android robot2 fa-3x stack-img-robot""></i><span class=""fa-stack fa-2x stack-img-bubble""><i class=""fa-solid fa-comment fa-stack-2x""></i><i class=""fa-solid fa-biohazard toxic fa-stack-1x""></i></span></div></div>",results,safe,toxic,46,,/static/stimuli/ax_sal_46.svg,,opp,opp
29,0,1657293679472,NA,NA,NA,NA,NA,NA,NA,NA,NA,NA,NA,html-button-response,27,133688,0.0-7.0-0.17,1,opp,NA,NA,,,,2906,,,,"<p><span>Aike <i class=""fa-solid fa-robot robot1  inline-icon""></i></span> thinks the image is <span>safe <i class=""fa-solid fa-seedling safe  inline-icon""></i></span> and tells us where it is looking at.</p><div class=""robot-label-img""><div class=""stack-img""><i class=""fa-solid fa-robot robot1 fa-3x stack-img-robot""></i><span class=""fa-stack fa-2x stack-img-bubble""><i class=""fa-solid fa-comment fa-stack-2x""></i><i class=""fa-solid fa-seedling safe fa-stack-1x""></i></span></div><img src=/static/stimuli/ax_sal_14.svg></div><div class=""prompt""><div class=""stack-img""><i class=""fa-brands fa-android robot2 fa-3x stack-img-robot""></i><span class=""fa-stack fa-2x stack-img-bubble""><i class=""fa-solid fa-comment fa-stack-2x""></i><i class=""fa-solid fa-biohazard toxic fa-stack-1x""></i></span></div></div>",results,safe,toxic,14,,/static/stimuli/ax_sal_14.svg,,same,opp
29,0,1657293679472,NA,NA,NA,NA,NA,NA,NA,NA,NA,NA,NA,html-button-response,28,135436,0.0-7.0-0.18,1,opp,NA,NA,,,,1746,,,,"<p><span>Aike <i class=""fa-solid fa-robot robot1  inline-icon""></i></span> thinks the image is <span>toxic <i class=""fa-solid fa-biohazard toxic  inline-icon""></i></span> and tells us where it is looking at.</p><div class=""robot-label-img""><div class=""stack-img""><i class=""fa-solid fa-robot robot1 fa-3x stack-img-robot""></i><span class=""fa-stack fa-2x stack-img-bubble""><i class=""fa-solid fa-comment fa-stack-2x""></i><i class=""fa-solid fa-biohazard toxic fa-stack-1x""></i></span></div><img src=/static/stimuli/ax_sal_48.svg></div><div class=""prompt""><div class=""stack-img""><i class=""fa-brands fa-android robot2 fa-3x stack-img-robot""></i><span class=""fa-stack fa-2x stack-img-bubble""><i class=""fa-solid fa-comment fa-stack-2x""></i><i class=""fa-solid fa-seedling safe fa-stack-1x""></i></span></div></div>",results,toxic,safe,48,,/static/stimuli/ax_sal_48.svg,,same,opp
29,0,1657293679472,NA,NA,NA,NA,NA,NA,NA,NA,NA,NA,NA,html-button-response,29,136995,0.0-7.0-0.19,1,opp,NA,NA,,,,1558,,,,"<p><span>Aike <i class=""fa-solid fa-robot robot1  inline-icon""></i></span> thinks the image is <span>safe <i class=""fa-solid fa-seedling safe  inline-icon""></i></span> and tells us where it is looking at.</p><div class=""robot-label-img""><div class=""stack-img""><i class=""fa-solid fa-robot robot1 fa-3x stack-img-robot""></i><span class=""fa-stack fa-2x stack-img-bubble""><i class=""fa-solid fa-comment fa-stack-2x""></i><i class=""fa-solid fa-seedling safe fa-stack-1x""></i></span></div><img src=/static/stimuli/ax_sal_54.svg></div><div class=""prompt""><div class=""stack-img""><i class=""fa-brands fa-android robot2 fa-3x stack-img-robot""></i><span class=""fa-stack fa-2x stack-img-bubble""><i class=""fa-solid fa-comment fa-stack-2x""></i><i class=""fa-solid fa-biohazard toxic fa-stack-1x""></i></span></div></div>",results,safe,toxic,54,,/static/stimuli/ax_sal_54.svg,,opp,opp
29,0,1657293679472,NA,NA,NA,NA,NA,NA,NA,NA,NA,NA,NA,html-button-response,30,138555,0.0-7.0-0.20,1,opp,NA,NA,,,,1559,,,,"<p><span>Aike <i class=""fa-solid fa-robot robot1  inline-icon""></i></span> thinks the image is <span>safe <i class=""fa-solid fa-seedling safe  inline-icon""></i></span> and tells us where it is looking at.</p><div class=""robot-label-img""><div class=""stack-img""><i class=""fa-solid fa-robot robot1 fa-3x stack-img-robot""></i><span class=""fa-stack fa-2x stack-img-bubble""><i class=""fa-solid fa-comment fa-stack-2x""></i><i class=""fa-solid fa-seedling safe fa-stack-1x""></i></span></div><img src=/static/stimuli/ax_sal_17.svg></div><div class=""prompt""><div class=""stack-img""><i class=""fa-brands fa-android robot2 fa-3x stack-img-robot""></i><span class=""fa-stack fa-2x stack-img-bubble""><i class=""fa-solid fa-comment fa-stack-2x""></i><i class=""fa-solid fa-biohazard toxic fa-stack-1x""></i></span></div></div>",results,safe,toxic,17,,/static/stimuli/ax_sal_17.svg,,opp,opp
29,0,1657293679472,NA,NA,NA,NA,NA,NA,NA,NA,NA,NA,NA,html-button-response,31,140691,0.0-7.0-0.21,1,opp,NA,NA,,,,2135,,,,"<p><span>Aike <i class=""fa-solid fa-robot robot1  inline-icon""></i></span> thinks the image is <span>toxic <i class=""fa-solid fa-biohazard toxic  inline-icon""></i></span> and tells us where it is looking at.</p><div class=""robot-label-img""><div class=""stack-img""><i class=""fa-solid fa-robot robot1 fa-3x stack-img-robot""></i><span class=""fa-stack fa-2x stack-img-bubble""><i class=""fa-solid fa-comment fa-stack-2x""></i><i class=""fa-solid fa-biohazard toxic fa-stack-1x""></i></span></div><img src=/static/stimuli/ax_sal_27.svg></div><div class=""prompt""><div class=""stack-img""><i class=""fa-brands fa-android robot2 fa-3x stack-img-robot""></i><span class=""fa-stack fa-2x stack-img-bubble""><i class=""fa-solid fa-comment fa-stack-2x""></i><i class=""fa-solid fa-seedling safe fa-stack-1x""></i></span></div></div>",results,toxic,safe,27,,/static/stimuli/ax_sal_27.svg,,same,opp
29,0,1657293679472,NA,NA,NA,NA,NA,NA,NA,NA,NA,NA,NA,html-button-response,32,142859,0.0-7.0-0.22,1,opp,NA,NA,,,,2167,,,,"<p><span>Aike <i class=""fa-solid fa-robot robot1  inline-icon""></i></span> thinks the image is <span>safe <i class=""fa-solid fa-seedling safe  inline-icon""></i></span> and tells us where it is looking at.</p><div class=""robot-label-img""><div class=""stack-img""><i class=""fa-solid fa-robot robot1 fa-3x stack-img-robot""></i><span class=""fa-stack fa-2x stack-img-bubble""><i class=""fa-solid fa-comment fa-stack-2x""></i><i class=""fa-solid fa-seedling safe fa-stack-1x""></i></span></div><img src=/static/stimuli/ax_sal_57.svg></div><div class=""prompt""><div class=""stack-img""><i class=""fa-brands fa-android robot2 fa-3x stack-img-robot""></i><span class=""fa-stack fa-2x stack-img-bubble""><i class=""fa-solid fa-comment fa-stack-2x""></i><i class=""fa-solid fa-biohazard toxic fa-stack-1x""></i></span></div></div>",results,safe,toxic,57,,/static/stimuli/ax_sal_57.svg,,opp,opp
29,0,1657293679472,NA,NA,NA,NA,NA,NA,NA,NA,NA,NA,NA,html-button-response,33,145668,0.0-7.0-0.23,1,opp,NA,NA,,,,2807,,,,"<p><span>Aike <i class=""fa-solid fa-robot robot1  inline-icon""></i></span> thinks the image is <span>safe <i class=""fa-solid fa-seedling safe  inline-icon""></i></span> and tells us where it is looking at.</p><div class=""robot-label-img""><div class=""stack-img""><i class=""fa-solid fa-robot robot1 fa-3x stack-img-robot""></i><span class=""fa-stack fa-2x stack-img-bubble""><i class=""fa-solid fa-comment fa-stack-2x""></i><i class=""fa-solid fa-seedling safe fa-stack-1x""></i></span></div><img src=/static/stimuli/ax_sal_34.svg></div><div class=""prompt""><div class=""stack-img""><i class=""fa-brands fa-android robot2 fa-3x stack-img-robot""></i><span class=""fa-stack fa-2x stack-img-bubble""><i class=""fa-solid fa-comment fa-stack-2x""></i><i class=""fa-solid fa-biohazard toxic fa-stack-1x""></i></span></div></div>",results,safe,toxic,34,,/static/stimuli/ax_sal_34.svg,,opp,opp
29,0,1657293679472,NA,NA,NA,NA,NA,NA,NA,NA,NA,NA,NA,html-button-response,34,148004,0.0-7.0-0.24,1,opp,NA,NA,,,,2335,,,,"<p><span>Aike <i class=""fa-solid fa-robot robot1  inline-icon""></i></span> thinks the image is <span>toxic <i class=""fa-solid fa-biohazard toxic  inline-icon""></i></span> and tells us where it is looking at.</p><div class=""robot-label-img""><div class=""stack-img""><i class=""fa-solid fa-robot robot1 fa-3x stack-img-robot""></i><span class=""fa-stack fa-2x stack-img-bubble""><i class=""fa-solid fa-comment fa-stack-2x""></i><i class=""fa-solid fa-biohazard toxic fa-stack-1x""></i></span></div><img src=/static/stimuli/ax_sal_10.svg></div><div class=""prompt""><div class=""stack-img""><i class=""fa-brands fa-android robot2 fa-3x stack-img-robot""></i><span class=""fa-stack fa-2x stack-img-bubble""><i class=""fa-solid fa-comment fa-stack-2x""></i><i class=""fa-solid fa-seedling safe fa-stack-1x""></i></span></div></div>",results,toxic,safe,10,,/static/stimuli/ax_sal_10.svg,,same,opp
29,0,1657293679472,NA,NA,NA,NA,NA,NA,NA,NA,NA,NA,NA,html-button-response,35,150348,0.0-7.0-0.25,1,opp,NA,NA,,,,2342,,,,"<p><span>Aike <i class=""fa-solid fa-robot robot1  inline-icon""></i></span> thinks the image is <span>toxic <i class=""fa-solid fa-biohazard toxic  inline-icon""></i></span> and tells us where it is looking at.</p><div class=""robot-label-img""><div class=""stack-img""><i class=""fa-solid fa-robot robot1 fa-3x stack-img-robot""></i><span class=""fa-stack fa-2x stack-img-bubble""><i class=""fa-solid fa-comment fa-stack-2x""></i><i class=""fa-solid fa-biohazard toxic fa-stack-1x""></i></span></div><img src=/static/stimuli/ax_sal_15.svg></div><div class=""prompt""><div class=""stack-img""><i class=""fa-brands fa-android robot2 fa-3x stack-img-robot""></i><span class=""fa-stack fa-2x stack-img-bubble""><i class=""fa-solid fa-comment fa-stack-2x""></i><i class=""fa-solid fa-seedling safe fa-stack-1x""></i></span></div></div>",results,toxic,safe,15,,/static/stimuli/ax_sal_15.svg,,same,opp
29,0,1657293679472,NA,NA,NA,NA,NA,NA,NA,NA,NA,NA,NA,html-button-response,36,153436,0.0-7.0-0.26,1,opp,NA,NA,,,,3088,,,,"<p><span>Aike <i class=""fa-solid fa-robot robot1  inline-icon""></i></span> thinks the image is <span>safe <i class=""fa-solid fa-seedling safe  inline-icon""></i></span> and tells us where it is looking at.</p><div class=""robot-label-img""><div class=""stack-img""><i class=""fa-solid fa-robot robot1 fa-3x stack-img-robot""></i><span class=""fa-stack fa-2x stack-img-bubble""><i class=""fa-solid fa-comment fa-stack-2x""></i><i class=""fa-solid fa-seedling safe fa-stack-1x""></i></span></div><img src=/static/stimuli/ax_sal_22.svg></div><div class=""prompt""><div class=""stack-img""><i class=""fa-brands fa-android robot2 fa-3x stack-img-robot""></i><span class=""fa-stack fa-2x stack-img-bubble""><i class=""fa-solid fa-comment fa-stack-2x""></i><i class=""fa-solid fa-biohazard toxic fa-stack-1x""></i></span></div></div>",results,safe,toxic,22,,/static/stimuli/ax_sal_22.svg,,opp,opp
29,0,1657293679472,NA,NA,NA,NA,NA,NA,NA,NA,NA,NA,NA,html-button-response,37,156308,0.0-7.0-0.27,1,opp,NA,NA,,,,2870,,,,"<p><span>Aike <i class=""fa-solid fa-robot robot1  inline-icon""></i></span> thinks the image is <span>toxic <i class=""fa-solid fa-biohazard toxic  inline-icon""></i></span> and tells us where it is looking at.</p><div class=""robot-label-img""><div class=""stack-img""><i class=""fa-solid fa-robot robot1 fa-3x stack-img-robot""></i><span class=""fa-stack fa-2x stack-img-bubble""><i class=""fa-solid fa-comment fa-stack-2x""></i><i class=""fa-solid fa-biohazard toxic fa-stack-1x""></i></span></div><img src=/static/stimuli/ax_sal_31.svg></div><div class=""prompt""><div class=""stack-img""><i class=""fa-brands fa-android robot2 fa-3x stack-img-robot""></i><span class=""fa-stack fa-2x stack-img-bubble""><i class=""fa-solid fa-comment fa-stack-2x""></i><i class=""fa-solid fa-seedling safe fa-stack-1x""></i></span></div></div>",results,toxic,safe,31,,/static/stimuli/ax_sal_31.svg,,same,opp
29,0,1657293679472,NA,NA,NA,NA,NA,NA,NA,NA,NA,NA,NA,html-button-response,38,158244,0.0-7.0-0.28,1,opp,NA,NA,,,,1935,,,,"<p><span>Aike <i class=""fa-solid fa-robot robot1  inline-icon""></i></span> thinks the image is <span>safe <i class=""fa-solid fa-seedling safe  inline-icon""></i></span> and tells us where it is looking at.</p><div class=""robot-label-img""><div class=""stack-img""><i class=""fa-solid fa-robot robot1 fa-3x stack-img-robot""></i><span class=""fa-stack fa-2x stack-img-bubble""><i class=""fa-solid fa-comment fa-stack-2x""></i><i class=""fa-solid fa-seedling safe fa-stack-1x""></i></span></div><img src=/static/stimuli/ax_sal_42.svg></div><div class=""prompt""><div class=""stack-img""><i class=""fa-brands fa-android robot2 fa-3x stack-img-robot""></i><span class=""fa-stack fa-2x stack-img-bubble""><i class=""fa-solid fa-comment fa-stack-2x""></i><i class=""fa-solid fa-biohazard toxic fa-stack-1x""></i></span></div></div>",results,safe,toxic,42,,/static/stimuli/ax_sal_42.svg,,opp,opp
29,0,1657293679472,NA,NA,NA,NA,NA,NA,NA,NA,NA,NA,NA,html-button-response,39,160019,0.0-7.0-0.29,1,opp,NA,NA,,,,1774,,,,"<p><span>Aike <i class=""fa-solid fa-robot robot1  inline-icon""></i></span> thinks the image is <span>toxic <i class=""fa-solid fa-biohazard toxic  inline-icon""></i></span> and tells us where it is looking at.</p><div class=""robot-label-img""><div class=""stack-img""><i class=""fa-solid fa-robot robot1 fa-3x stack-img-robot""></i><span class=""fa-stack fa-2x stack-img-bubble""><i class=""fa-solid fa-comment fa-stack-2x""></i><i class=""fa-solid fa-biohazard toxic fa-stack-1x""></i></span></div><img src=/static/stimuli/ax_sal_44.svg></div><div class=""prompt""><div class=""stack-img""><i class=""fa-brands fa-android robot2 fa-3x stack-img-robot""></i><span class=""fa-stack fa-2x stack-img-bubble""><i class=""fa-solid fa-comment fa-stack-2x""></i><i class=""fa-solid fa-seedling safe fa-stack-1x""></i></span></div></div>",results,toxic,safe,44,,/static/stimuli/ax_sal_44.svg,,same,opp
29,0,1657293679472,NA,NA,NA,NA,NA,NA,NA,NA,NA,NA,NA,html-button-response,40,162965,0.0-7.0-0.30,1,opp,NA,NA,,,,2943,,,,"<p><span>Aike <i class=""fa-solid fa-robot robot1  inline-icon""></i></span> thinks the image is <span>toxic <i class=""fa-solid fa-biohazard toxic  inline-icon""></i></span> and tells us where it is looking at.</p><div class=""robot-label-img""><div class=""stack-img""><i class=""fa-solid fa-robot robot1 fa-3x stack-img-robot""></i><span class=""fa-stack fa-2x stack-img-bubble""><i class=""fa-solid fa-comment fa-stack-2x""></i><i class=""fa-solid fa-biohazard toxic fa-stack-1x""></i></span></div><img src=/static/stimuli/ax_sal_47.svg></div><div class=""prompt""><div class=""stack-img""><i class=""fa-brands fa-android robot2 fa-3x stack-img-robot""></i><span class=""fa-stack fa-2x stack-img-bubble""><i class=""fa-solid fa-comment fa-stack-2x""></i><i class=""fa-solid fa-seedling safe fa-stack-1x""></i></span></div></div>",results,toxic,safe,47,,/static/stimuli/ax_sal_47.svg,,same,opp
29,0,1657293679472,NA,NA,NA,NA,NA,NA,NA,NA,NA,NA,NA,html-button-response,41,164325,0.0-7.0-0.31,1,opp,NA,NA,,,,1358,,,,"<p><span>Aike <i class=""fa-solid fa-robot robot1  inline-icon""></i></span> thinks the image is <span>toxic <i class=""fa-solid fa-biohazard toxic  inline-icon""></i></span> and tells us where it is looking at.</p><div class=""robot-label-img""><div class=""stack-img""><i class=""fa-solid fa-robot robot1 fa-3x stack-img-robot""></i><span class=""fa-stack fa-2x stack-img-bubble""><i class=""fa-solid fa-comment fa-stack-2x""></i><i class=""fa-solid fa-biohazard toxic fa-stack-1x""></i></span></div><img src=/static/stimuli/ax_sal_12.svg></div><div class=""prompt""><div class=""stack-img""><i class=""fa-brands fa-android robot2 fa-3x stack-img-robot""></i><span class=""fa-stack fa-2x stack-img-bubble""><i class=""fa-solid fa-comment fa-stack-2x""></i><i class=""fa-solid fa-seedling safe fa-stack-1x""></i></span></div></div>",results,toxic,safe,12,,/static/stimuli/ax_sal_12.svg,,same,opp
29,0,1657293679472,NA,NA,NA,NA,NA,NA,NA,NA,NA,NA,NA,html-button-response,42,165932,0.0-7.0-0.32,1,opp,NA,NA,,,,1606,,,,"<p><span>Aike <i class=""fa-solid fa-robot robot1  inline-icon""></i></span> thinks the image is <span>safe <i class=""fa-solid fa-seedling safe  inline-icon""></i></span> and tells us where it is looking at.</p><div class=""robot-label-img""><div class=""stack-img""><i class=""fa-solid fa-robot robot1 fa-3x stack-img-robot""></i><span class=""fa-stack fa-2x stack-img-bubble""><i class=""fa-solid fa-comment fa-stack-2x""></i><i class=""fa-solid fa-seedling safe fa-stack-1x""></i></span></div><img src=/static/stimuli/ax_sal_56.svg></div><div class=""prompt""><div class=""stack-img""><i class=""fa-brands fa-android robot2 fa-3x stack-img-robot""></i><span class=""fa-stack fa-2x stack-img-bubble""><i class=""fa-solid fa-comment fa-stack-2x""></i><i class=""fa-solid fa-biohazard toxic fa-stack-1x""></i></span></div></div>",results,safe,toxic,56,,/static/stimuli/ax_sal_56.svg,,opp,opp
29,0,1657293679472,NA,NA,NA,NA,NA,NA,NA,NA,NA,NA,NA,html-button-response,43,167140,0.0-7.0-0.33,1,opp,NA,NA,,,,1207,,,,"<p><span>Aike <i class=""fa-solid fa-robot robot1  inline-icon""></i></span> thinks the image is <span>safe <i class=""fa-solid fa-seedling safe  inline-icon""></i></span> and tells us where it is looking at.</p><div class=""robot-label-img""><div class=""stack-img""><i class=""fa-solid fa-robot robot1 fa-3x stack-img-robot""></i><span class=""fa-stack fa-2x stack-img-bubble""><i class=""fa-solid fa-comment fa-stack-2x""></i><i class=""fa-solid fa-seedling safe fa-stack-1x""></i></span></div><img src=/static/stimuli/ax_sal_19.svg></div><div class=""prompt""><div class=""stack-img""><i class=""fa-brands fa-android robot2 fa-3x stack-img-robot""></i><span class=""fa-stack fa-2x stack-img-bubble""><i class=""fa-solid fa-comment fa-stack-2x""></i><i class=""fa-solid fa-biohazard toxic fa-stack-1x""></i></span></div></div>",results,safe,toxic,19,,/static/stimuli/ax_sal_19.svg,,same,opp
29,0,1657293679472,NA,NA,NA,NA,NA,NA,NA,NA,NA,NA,NA,html-button-response,44,169133,0.0-7.0-0.34,1,opp,NA,NA,,,,1992,,,,"<p><span>Aike <i class=""fa-solid fa-robot robot1  inline-icon""></i></span> thinks the image is <span>safe <i class=""fa-solid fa-seedling safe  inline-icon""></i></span> and tells us where it is looking at.</p><div class=""robot-label-img""><div class=""stack-img""><i class=""fa-solid fa-robot robot1 fa-3x stack-img-robot""></i><span class=""fa-stack fa-2x stack-img-bubble""><i class=""fa-solid fa-comment fa-stack-2x""></i><i class=""fa-solid fa-seedling safe fa-stack-1x""></i></span></div><img src=/static/stimuli/ax_sal_11.svg></div><div class=""prompt""><div class=""stack-img""><i class=""fa-brands fa-android robot2 fa-3x stack-img-robot""></i><span class=""fa-stack fa-2x stack-img-bubble""><i class=""fa-solid fa-comment fa-stack-2x""></i><i class=""fa-solid fa-biohazard toxic fa-stack-1x""></i></span></div></div>",results,safe,toxic,11,,/static/stimuli/ax_sal_11.svg,,opp,opp
29,0,1657293679472,NA,NA,NA,NA,NA,NA,NA,NA,NA,NA,NA,html-button-response,45,170924,0.0-7.0-0.35,1,opp,NA,NA,,,,1789,,,,"<p><span>Aike <i class=""fa-solid fa-robot robot1  inline-icon""></i></span> thinks the image is <span>safe <i class=""fa-solid fa-seedling safe  inline-icon""></i></span> and tells us where it is looking at.</p><div class=""robot-label-img""><div class=""stack-img""><i class=""fa-solid fa-robot robot1 fa-3x stack-img-robot""></i><span class=""fa-stack fa-2x stack-img-bubble""><i class=""fa-solid fa-comment fa-stack-2x""></i><i class=""fa-solid fa-seedling safe fa-stack-1x""></i></span></div><img src=/static/stimuli/ax_sal_23.svg></div><div class=""prompt""><div class=""stack-img""><i class=""fa-brands fa-android robot2 fa-3x stack-img-robot""></i><span class=""fa-stack fa-2x stack-img-bubble""><i class=""fa-solid fa-comment fa-stack-2x""></i><i class=""fa-solid fa-biohazard toxic fa-stack-1x""></i></span></div></div>",results,safe,toxic,23,,/static/stimuli/ax_sal_23.svg,,opp,opp
29,0,1657293679472,NA,NA,NA,NA,NA,NA,NA,NA,NA,NA,NA,html-button-response,46,172500,0.0-7.0-0.36,1,opp,NA,NA,,,,1575,,,,"<p><span>Aike <i class=""fa-solid fa-robot robot1  inline-icon""></i></span> thinks the image is <span>safe <i class=""fa-solid fa-seedling safe  inline-icon""></i></span> and tells us where it is looking at.</p><div class=""robot-label-img""><div class=""stack-img""><i class=""fa-solid fa-robot robot1 fa-3x stack-img-robot""></i><span class=""fa-stack fa-2x stack-img-bubble""><i class=""fa-solid fa-comment fa-stack-2x""></i><i class=""fa-solid fa-seedling safe fa-stack-1x""></i></span></div><img src=/static/stimuli/ax_sal_55.svg></div><div class=""prompt""><div class=""stack-img""><i class=""fa-brands fa-android robot2 fa-3x stack-img-robot""></i><span class=""fa-stack fa-2x stack-img-bubble""><i class=""fa-solid fa-comment fa-stack-2x""></i><i class=""fa-solid fa-biohazard toxic fa-stack-1x""></i></span></div></div>",results,safe,toxic,55,,/static/stimuli/ax_sal_55.svg,,opp,opp
29,0,1657293679472,NA,NA,NA,NA,NA,NA,NA,NA,NA,NA,NA,html-button-response,47,173956,0.0-7.0-0.37,1,opp,NA,NA,,,,1455,,,,"<p><span>Aike <i class=""fa-solid fa-robot robot1  inline-icon""></i></span> thinks the image is <span>safe <i class=""fa-solid fa-seedling safe  inline-icon""></i></span> and tells us where it is looking at.</p><div class=""robot-label-img""><div class=""stack-img""><i class=""fa-solid fa-robot robot1 fa-3x stack-img-robot""></i><span class=""fa-stack fa-2x stack-img-bubble""><i class=""fa-solid fa-comment fa-stack-2x""></i><i class=""fa-solid fa-seedling safe fa-stack-1x""></i></span></div><img src=/static/stimuli/ax_sal_20.svg></div><div class=""prompt""><div class=""stack-img""><i class=""fa-brands fa-android robot2 fa-3x stack-img-robot""></i><span class=""fa-stack fa-2x stack-img-bubble""><i class=""fa-solid fa-comment fa-stack-2x""></i><i class=""fa-solid fa-biohazard toxic fa-stack-1x""></i></span></div></div>",results,safe,toxic,20,,/static/stimuli/ax_sal_20.svg,,opp,opp
29,0,1657293679472,NA,NA,NA,NA,NA,NA,NA,NA,NA,NA,NA,html-button-response,48,175893,0.0-7.0-0.38,1,opp,NA,NA,,,,1935,,,,"<p><span>Aike <i class=""fa-solid fa-robot robot1  inline-icon""></i></span> thinks the image is <span>toxic <i class=""fa-solid fa-biohazard toxic  inline-icon""></i></span> and tells us where it is looking at.</p><div class=""robot-label-img""><div class=""stack-img""><i class=""fa-solid fa-robot robot1 fa-3x stack-img-robot""></i><span class=""fa-stack fa-2x stack-img-bubble""><i class=""fa-solid fa-comment fa-stack-2x""></i><i class=""fa-solid fa-biohazard toxic fa-stack-1x""></i></span></div><img src=/static/stimuli/ax_sal_26.svg></div><div class=""prompt""><div class=""stack-img""><i class=""fa-brands fa-android robot2 fa-3x stack-img-robot""></i><span class=""fa-stack fa-2x stack-img-bubble""><i class=""fa-solid fa-comment fa-stack-2x""></i><i class=""fa-solid fa-seedling safe fa-stack-1x""></i></span></div></div>",results,toxic,safe,26,,/static/stimuli/ax_sal_26.svg,,same,opp
29,0,1657293679472,NA,NA,NA,NA,NA,NA,NA,NA,NA,NA,NA,html-button-response,49,177708,0.0-7.0-0.39,1,opp,NA,NA,,,,1814,,,,"<p><span>Aike <i class=""fa-solid fa-robot robot1  inline-icon""></i></span> thinks the image is <span>toxic <i class=""fa-solid fa-biohazard toxic  inline-icon""></i></span> and tells us where it is looking at.</p><div class=""robot-label-img""><div class=""stack-img""><i class=""fa-solid fa-robot robot1 fa-3x stack-img-robot""></i><span class=""fa-stack fa-2x stack-img-bubble""><i class=""fa-solid fa-comment fa-stack-2x""></i><i class=""fa-solid fa-biohazard toxic fa-stack-1x""></i></span></div><img src=/static/stimuli/ax_sal_29.svg></div><div class=""prompt""><div class=""stack-img""><i class=""fa-brands fa-android robot2 fa-3x stack-img-robot""></i><span class=""fa-stack fa-2x stack-img-bubble""><i class=""fa-solid fa-comment fa-stack-2x""></i><i class=""fa-solid fa-seedling safe fa-stack-1x""></i></span></div></div>",results,toxic,safe,29,,/static/stimuli/ax_sal_29.svg,,same,opp
29,0,1657293679472,NA,NA,NA,NA,NA,NA,NA,NA,NA,NA,NA,html-button-response,50,179557,0.0-7.0-0.40,1,opp,NA,NA,,,,1847,,,,"<p><span>Aike <i class=""fa-solid fa-robot robot1  inline-icon""></i></span> thinks the image is <span>safe <i class=""fa-solid fa-seedling safe  inline-icon""></i></span> and tells us where it is looking at.</p><div class=""robot-label-img""><div class=""stack-img""><i class=""fa-solid fa-robot robot1 fa-3x stack-img-robot""></i><span class=""fa-stack fa-2x stack-img-bubble""><i class=""fa-solid fa-comment fa-stack-2x""></i><i class=""fa-solid fa-seedling safe fa-stack-1x""></i></span></div><img src=/static/stimuli/ax_sal_32.svg></div><div class=""prompt""><div class=""stack-img""><i class=""fa-brands fa-android robot2 fa-3x stack-img-robot""></i><span class=""fa-stack fa-2x stack-img-bubble""><i class=""fa-solid fa-comment fa-stack-2x""></i><i class=""fa-solid fa-biohazard toxic fa-stack-1x""></i></span></div></div>",results,safe,toxic,32,,/static/stimuli/ax_sal_32.svg,,opp,opp
29,0,1657293679472,NA,NA,NA,NA,NA,NA,NA,NA,NA,NA,NA,html-button-response,51,180788,0.0-7.0-0.41,1,opp,NA,NA,,,,1231,,,,"<p><span>Aike <i class=""fa-solid fa-robot robot1  inline-icon""></i></span> thinks the image is <span>safe <i class=""fa-solid fa-seedling safe  inline-icon""></i></span> and tells us where it is looking at.</p><div class=""robot-label-img""><div class=""stack-img""><i class=""fa-solid fa-robot robot1 fa-3x stack-img-robot""></i><span class=""fa-stack fa-2x stack-img-bubble""><i class=""fa-solid fa-comment fa-stack-2x""></i><i class=""fa-solid fa-seedling safe fa-stack-1x""></i></span></div><img src=/static/stimuli/ax_sal_39.svg></div><div class=""prompt""><div class=""stack-img""><i class=""fa-brands fa-android robot2 fa-3x stack-img-robot""></i><span class=""fa-stack fa-2x stack-img-bubble""><i class=""fa-solid fa-comment fa-stack-2x""></i><i class=""fa-solid fa-biohazard toxic fa-stack-1x""></i></span></div></div>",results,safe,toxic,39,,/static/stimuli/ax_sal_39.svg,,opp,opp
29,0,1657293679472,NA,NA,NA,NA,NA,NA,NA,NA,NA,NA,NA,html-button-response,52,182516,0.0-7.0-0.42,1,opp,NA,NA,,,,1727,,,,"<p><span>Aike <i class=""fa-solid fa-robot robot1  inline-icon""></i></span> thinks the image is <span>toxic <i class=""fa-solid fa-biohazard toxic  inline-icon""></i></span> and tells us where it is looking at.</p><div class=""robot-label-img""><div class=""stack-img""><i class=""fa-solid fa-robot robot1 fa-3x stack-img-robot""></i><span class=""fa-stack fa-2x stack-img-bubble""><i class=""fa-solid fa-comment fa-stack-2x""></i><i class=""fa-solid fa-biohazard toxic fa-stack-1x""></i></span></div><img src=/static/stimuli/ax_sal_59.svg></div><div class=""prompt""><div class=""stack-img""><i class=""fa-brands fa-android robot2 fa-3x stack-img-robot""></i><span class=""fa-stack fa-2x stack-img-bubble""><i class=""fa-solid fa-comment fa-stack-2x""></i><i class=""fa-solid fa-seedling safe fa-stack-1x""></i></span></div></div>",results,toxic,safe,59,,/static/stimuli/ax_sal_59.svg,,same,opp
29,0,1657293679472,NA,NA,NA,NA,NA,NA,NA,NA,NA,NA,NA,html-button-response,53,185644,0.0-7.0-0.43,1,opp,NA,NA,,,,3127,,,,"<p><span>Aike <i class=""fa-solid fa-robot robot1  inline-icon""></i></span> thinks the image is <span>toxic <i class=""fa-solid fa-biohazard toxic  inline-icon""></i></span> and tells us where it is looking at.</p><div class=""robot-label-img""><div class=""stack-img""><i class=""fa-solid fa-robot robot1 fa-3x stack-img-robot""></i><span class=""fa-stack fa-2x stack-img-bubble""><i class=""fa-solid fa-comment fa-stack-2x""></i><i class=""fa-solid fa-biohazard toxic fa-stack-1x""></i></span></div><img src=/static/stimuli/ax_sal_40.svg></div><div class=""prompt""><div class=""stack-img""><i class=""fa-brands fa-android robot2 fa-3x stack-img-robot""></i><span class=""fa-stack fa-2x stack-img-bubble""><i class=""fa-solid fa-comment fa-stack-2x""></i><i class=""fa-solid fa-seedling safe fa-stack-1x""></i></span></div></div>",results,toxic,safe,40,,/static/stimuli/ax_sal_40.svg,,same,opp
29,0,1657293679472,NA,NA,NA,NA,NA,NA,NA,NA,NA,NA,NA,html-button-response,54,188180,0.0-7.0-0.44,1,opp,NA,NA,,,,2535,,,,"<p><span>Aike <i class=""fa-solid fa-robot robot1  inline-icon""></i></span> thinks the image is <span>safe <i class=""fa-solid fa-seedling safe  inline-icon""></i></span> and tells us where it is looking at.</p><div class=""robot-label-img""><div class=""stack-img""><i class=""fa-solid fa-robot robot1 fa-3x stack-img-robot""></i><span class=""fa-stack fa-2x stack-img-bubble""><i class=""fa-solid fa-comment fa-stack-2x""></i><i class=""fa-solid fa-seedling safe fa-stack-1x""></i></span></div><img src=/static/stimuli/ax_sal_33.svg></div><div class=""prompt""><div class=""stack-img""><i class=""fa-brands fa-android robot2 fa-3x stack-img-robot""></i><span class=""fa-stack fa-2x stack-img-bubble""><i class=""fa-solid fa-comment fa-stack-2x""></i><i class=""fa-solid fa-biohazard toxic fa-stack-1x""></i></span></div></div>",results,safe,toxic,33,,/static/stimuli/ax_sal_33.svg,,opp,opp
29,0,1657293679472,NA,NA,NA,NA,NA,NA,NA,NA,NA,NA,NA,html-button-response,55,190420,0.0-7.0-0.45,1,opp,NA,NA,,,,2239,,,,"<p><span>Aike <i class=""fa-solid fa-robot robot1  inline-icon""></i></span> thinks the image is <span>safe <i class=""fa-solid fa-seedling safe  inline-icon""></i></span> and tells us where it is looking at.</p><div class=""robot-label-img""><div class=""stack-img""><i class=""fa-solid fa-robot robot1 fa-3x stack-img-robot""></i><span class=""fa-stack fa-2x stack-img-bubble""><i class=""fa-solid fa-comment fa-stack-2x""></i><i class=""fa-solid fa-seedling safe fa-stack-1x""></i></span></div><img src=/static/stimuli/ax_sal_50.svg></div><div class=""prompt""><div class=""stack-img""><i class=""fa-brands fa-android robot2 fa-3x stack-img-robot""></i><span class=""fa-stack fa-2x stack-img-bubble""><i class=""fa-solid fa-comment fa-stack-2x""></i><i class=""fa-solid fa-biohazard toxic fa-stack-1x""></i></span></div></div>",results,safe,toxic,50,,/static/stimuli/ax_sal_50.svg,,opp,opp
29,0,1657293679472,NA,NA,NA,NA,NA,NA,NA,NA,NA,NA,NA,html-button-response,56,192245,0.0-7.0-0.46,1,opp,NA,NA,,,,1823,,,,"<p><span>Aike <i class=""fa-solid fa-robot robot1  inline-icon""></i></span> thinks the image is <span>toxic <i class=""fa-solid fa-biohazard toxic  inline-icon""></i></span> and tells us where it is looking at.</p><div class=""robot-label-img""><div class=""stack-img""><i class=""fa-solid fa-robot robot1 fa-3x stack-img-robot""></i><span class=""fa-stack fa-2x stack-img-bubble""><i class=""fa-solid fa-comment fa-stack-2x""></i><i class=""fa-solid fa-biohazard toxic fa-stack-1x""></i></span></div><img src=/static/stimuli/ax_sal_52.svg></div><div class=""prompt""><div class=""stack-img""><i class=""fa-brands fa-android robot2 fa-3x stack-img-robot""></i><span class=""fa-stack fa-2x stack-img-bubble""><i class=""fa-solid fa-comment fa-stack-2x""></i><i class=""fa-solid fa-seedling safe fa-stack-1x""></i></span></div></div>",results,toxic,safe,52,,/static/stimuli/ax_sal_52.svg,,same,opp
29,0,1657293679472,NA,NA,NA,NA,NA,NA,NA,NA,NA,NA,NA,html-button-response,57,194700,0.0-7.0-0.47,1,opp,NA,NA,,,,2454,,,,"<p><span>Aike <i class=""fa-solid fa-robot robot1  inline-icon""></i></span> thinks the image is <span>safe <i class=""fa-solid fa-seedling safe  inline-icon""></i></span> and tells us where it is looking at.</p><div class=""robot-label-img""><div class=""stack-img""><i class=""fa-solid fa-robot robot1 fa-3x stack-img-robot""></i><span class=""fa-stack fa-2x stack-img-bubble""><i class=""fa-solid fa-comment fa-stack-2x""></i><i class=""fa-solid fa-seedling safe fa-stack-1x""></i></span></div><img src=/static/stimuli/ax_sal_43.svg></div><div class=""prompt""><div class=""stack-img""><i class=""fa-brands fa-android robot2 fa-3x stack-img-robot""></i><span class=""fa-stack fa-2x stack-img-bubble""><i class=""fa-solid fa-comment fa-stack-2x""></i><i class=""fa-solid fa-biohazard toxic fa-stack-1x""></i></span></div></div>",results,safe,toxic,43,,/static/stimuli/ax_sal_43.svg,,opp,opp
29,0,1657293679472,NA,NA,NA,NA,NA,NA,NA,NA,NA,NA,NA,html-button-response,58,197293,0.0-7.0-0.48,1,opp,NA,NA,,,,2591,,,,"<p><span>Aike <i class=""fa-solid fa-robot robot1  inline-icon""></i></span> thinks the image is <span>safe <i class=""fa-solid fa-seedling safe  inline-icon""></i></span> and tells us where it is looking at.</p><div class=""robot-label-img""><div class=""stack-img""><i class=""fa-solid fa-robot robot1 fa-3x stack-img-robot""></i><span class=""fa-stack fa-2x stack-img-bubble""><i class=""fa-solid fa-comment fa-stack-2x""></i><i class=""fa-solid fa-seedling safe fa-stack-1x""></i></span></div><img src=/static/stimuli/ax_sal_53.svg></div><div class=""prompt""><div class=""stack-img""><i class=""fa-brands fa-android robot2 fa-3x stack-img-robot""></i><span class=""fa-stack fa-2x stack-img-bubble""><i class=""fa-solid fa-comment fa-stack-2x""></i><i class=""fa-solid fa-biohazard toxic fa-stack-1x""></i></span></div></div>",results,safe,toxic,53,,/static/stimuli/ax_sal_53.svg,,opp,opp
29,0,1657293679472,NA,NA,NA,NA,NA,NA,NA,NA,NA,NA,NA,html-button-response,59,199612,0.0-7.0-0.49,1,opp,NA,NA,,,,2318,,,,"<p><span>Aike <i class=""fa-solid fa-robot robot1  inline-icon""></i></span> thinks the image is <span>safe <i class=""fa-solid fa-seedling safe  inline-icon""></i></span> and tells us where it is looking at.</p><div class=""robot-label-img""><div class=""stack-img""><i class=""fa-solid fa-robot robot1 fa-3x stack-img-robot""></i><span class=""fa-stack fa-2x stack-img-bubble""><i class=""fa-solid fa-comment fa-stack-2x""></i><i class=""fa-solid fa-seedling safe fa-stack-1x""></i></span></div><img src=/static/stimuli/ax_sal_38.svg></div><div class=""prompt""><div class=""stack-img""><i class=""fa-brands fa-android robot2 fa-3x stack-img-robot""></i><span class=""fa-stack fa-2x stack-img-bubble""><i class=""fa-solid fa-comment fa-stack-2x""></i><i class=""fa-solid fa-biohazard toxic fa-stack-1x""></i></span></div></div>",results,safe,toxic,38,,/static/stimuli/ax_sal_38.svg,,opp,opp
29,0,1657293679472,NA,NA,NA,NA,NA,NA,NA,NA,NA,NA,NA,survey-text,60,201806,0.0-8.0,1,opp,NA,NA,,,,2191,,,,NA,NA,NA,NA,NA,,NA,,NA,NA
43,0,1657293684164,1366,657,TRUE,chrome,103.0.0,FALSE,Windows 10,TRUE,32.14,FALSE,FALSE,browser-check,0,1876,0.0-0.0,0,same,NA,NA,,,,NA,,,,NA,NA,NA,NA,NA,,NA,,NA,NA
43,0,1657293684164,1366,657,TRUE,chrome,103.0.0,FALSE,Windows 10,TRUE,32,FALSE,FALSE,browser-check,1,3781,0.0-1.0,0,same,NA,NA,,,,NA,,,,NA,NA,NA,NA,NA,,NA,,NA,NA
43,0,1657293684164,NA,NA,NA,NA,NA,NA,NA,NA,NA,NA,NA,preload,2,8090,0.0-2.0,0,same,TRUE,FALSE,,,,NA,,,,NA,NA,NA,NA,NA,,NA,,NA,NA
43,0,1657293684164,NA,NA,NA,NA,NA,NA,NA,NA,NA,NA,NA,survey-multi-choice,3,25796,0.0-3.0,0,same,NA,NA,,,,17705,,,,NA,NA,NA,NA,NA,,NA,,NA,NA
43,0,1657293684164,NA,NA,NA,NA,NA,NA,NA,NA,NA,NA,NA,survey-text,4,30357,0.0-4.0,0,same,NA,NA,,,,4555,,,,NA,NA,NA,NA,NA,,NA,,NA,NA
43,0,1657293684164,NA,NA,NA,NA,NA,NA,NA,NA,NA,NA,NA,instructions,5,37667,0.0-5.0,0,same,NA,NA,,,,7309,,,,NA,NA,NA,NA,NA,,NA,,NA,NA
43,0,1657293684164,NA,NA,NA,NA,NA,NA,NA,NA,NA,NA,NA,html-button-response,6,41109,0.0-6.0-0.0-0.0,0,same,NA,NA,,,,3437,,,,"<p><span>Aike <i class=""fa-solid fa-robot robot1  inline-icon""></i></span> thinks the image is <span>safe <i class=""fa-solid fa-seedling safe  inline-icon""></i></span> and tells us where it is looking at.</p><div class=""robot-label-img""><div class=""stack-img""><i class=""fa-solid fa-robot robot1 fa-3x stack-img-robot""></i><span class=""fa-stack fa-2x stack-img-bubble""><i class=""fa-solid fa-comment fa-stack-2x""></i><i class=""fa-solid fa-seedling safe fa-stack-1x""></i></span></div><img src=/static/stimuli/ax_sal_2.svg></div><div class=""prompt""><div class=""stack-img""><i class=""fa-brands fa-android robot2 fa-3x stack-img-robot""></i><span class=""fa-stack fa-2x stack-img-bubble""><i class=""fa-solid fa-comment fa-stack-2x""></i><i class=""fa-solid fa-seedling safe fa-stack-1x""></i></span></div></div>",practice,safe,safe,2,,/static/stimuli/ax_sal_2.svg,,same,same
43,0,1657293684164,NA,NA,NA,NA,NA,NA,NA,NA,NA,NA,NA,html-button-response,7,43037,0.0-6.0-0.0-0.1,0,same,NA,NA,,,,1925,,,,"<p><span>Aike <i class=""fa-solid fa-robot robot1  inline-icon""></i></span> thinks the image is <span>toxic <i class=""fa-solid fa-biohazard toxic  inline-icon""></i></span> and tells us where it is looking at.</p><div class=""robot-label-img""><div class=""stack-img""><i class=""fa-solid fa-robot robot1 fa-3x stack-img-robot""></i><span class=""fa-stack fa-2x stack-img-bubble""><i class=""fa-solid fa-comment fa-stack-2x""></i><i class=""fa-solid fa-biohazard toxic fa-stack-1x""></i></span></div><img src=/static/stimuli/ax_sal_3.svg></div><div class=""prompt""><div class=""stack-img""><i class=""fa-brands fa-android robot2 fa-3x stack-img-robot""></i><span class=""fa-stack fa-2x stack-img-bubble""><i class=""fa-solid fa-comment fa-stack-2x""></i><i class=""fa-solid fa-biohazard toxic fa-stack-1x""></i></span></div></div>",practice,toxic,toxic,3,,/static/stimuli/ax_sal_3.svg,,same,same
43,0,1657293684164,NA,NA,NA,NA,NA,NA,NA,NA,NA,NA,NA,html-button-response,8,48794,0.0-6.0-0.0-0.2,0,same,NA,NA,,,,5758,,,,"<p><span>Aike <i class=""fa-solid fa-robot robot1  inline-icon""></i></span> thinks the image is <span>safe <i class=""fa-solid fa-seedling safe  inline-icon""></i></span> and tells us where it is looking at.</p><div class=""robot-label-img""><div class=""stack-img""><i class=""fa-solid fa-robot robot1 fa-3x stack-img-robot""></i><span class=""fa-stack fa-2x stack-img-bubble""><i class=""fa-solid fa-comment fa-stack-2x""></i><i class=""fa-solid fa-seedling safe fa-stack-1x""></i></span></div><img src=/static/stimuli/ax_sal_4.svg></div><div class=""prompt""><div class=""stack-img""><i class=""fa-brands fa-android robot2 fa-3x stack-img-robot""></i><span class=""fa-stack fa-2x stack-img-bubble""><i class=""fa-solid fa-comment fa-stack-2x""></i><i class=""fa-solid fa-seedling safe fa-stack-1x""></i></span></div></div>",practice,safe,safe,4,,/static/stimuli/ax_sal_4.svg,,same,same
43,0,1657293684164,NA,NA,NA,NA,NA,NA,NA,NA,NA,NA,NA,instructions,9,50410,0.0-6.0-1.0,0,same,NA,NA,,,,1615,,,,NA,NA,NA,NA,NA,,NA,,NA,NA
43,0,1657293684164,NA,NA,NA,NA,NA,NA,NA,NA,NA,NA,NA,html-button-response,10,65546,0.0-7.0-0.0,0,same,NA,NA,,,,15134,,,,"<p><span>Aike <i class=""fa-solid fa-robot robot1  inline-icon""></i></span> thinks the image is <span>toxic <i class=""fa-solid fa-biohazard toxic  inline-icon""></i></span> and tells us where it is looking at.</p><div class=""robot-label-img""><div class=""stack-img""><i class=""fa-solid fa-robot robot1 fa-3x stack-img-robot""></i><span class=""fa-stack fa-2x stack-img-bubble""><i class=""fa-solid fa-comment fa-stack-2x""></i><i class=""fa-solid fa-biohazard toxic fa-stack-1x""></i></span></div><img src=/static/stimuli/ax_sal_40.svg></div><div class=""prompt""><div class=""stack-img""><i class=""fa-brands fa-android robot2 fa-3x stack-img-robot""></i><span class=""fa-stack fa-2x stack-img-bubble""><i class=""fa-solid fa-comment fa-stack-2x""></i><i class=""fa-solid fa-biohazard toxic fa-stack-1x""></i></span></div></div>",results,toxic,toxic,40,,/static/stimuli/ax_sal_40.svg,,same,same
43,0,1657293684164,NA,NA,NA,NA,NA,NA,NA,NA,NA,NA,NA,html-button-response,11,68411,0.0-7.0-0.1,0,same,NA,NA,,,,2863,,,,"<p><span>Aike <i class=""fa-solid fa-robot robot1  inline-icon""></i></span> thinks the image is <span>safe <i class=""fa-solid fa-seedling safe  inline-icon""></i></span> and tells us where it is looking at.</p><div class=""robot-label-img""><div class=""stack-img""><i class=""fa-solid fa-robot robot1 fa-3x stack-img-robot""></i><span class=""fa-stack fa-2x stack-img-bubble""><i class=""fa-solid fa-comment fa-stack-2x""></i><i class=""fa-solid fa-seedling safe fa-stack-1x""></i></span></div><img src=/static/stimuli/ax_sal_48.svg></div><div class=""prompt""><div class=""stack-img""><i class=""fa-brands fa-android robot2 fa-3x stack-img-robot""></i><span class=""fa-stack fa-2x stack-img-bubble""><i class=""fa-solid fa-comment fa-stack-2x""></i><i class=""fa-solid fa-seedling safe fa-stack-1x""></i></span></div></div>",results,safe,safe,48,,/static/stimuli/ax_sal_48.svg,,opp,same
43,0,1657293684164,NA,NA,NA,NA,NA,NA,NA,NA,NA,NA,NA,html-button-response,12,71673,0.0-7.0-0.2,0,same,NA,NA,,,,3260,,,,"<p><span>Aike <i class=""fa-solid fa-robot robot1  inline-icon""></i></span> thinks the image is <span>toxic <i class=""fa-solid fa-biohazard toxic  inline-icon""></i></span> and tells us where it is looking at.</p><div class=""robot-label-img""><div class=""stack-img""><i class=""fa-solid fa-robot robot1 fa-3x stack-img-robot""></i><span class=""fa-stack fa-2x stack-img-bubble""><i class=""fa-solid fa-comment fa-stack-2x""></i><i class=""fa-solid fa-biohazard toxic fa-stack-1x""></i></span></div><img src=/static/stimuli/ax_sal_44.svg></div><div class=""prompt""><div class=""stack-img""><i class=""fa-brands fa-android robot2 fa-3x stack-img-robot""></i><span class=""fa-stack fa-2x stack-img-bubble""><i class=""fa-solid fa-comment fa-stack-2x""></i><i class=""fa-solid fa-biohazard toxic fa-stack-1x""></i></span></div></div>",results,toxic,toxic,44,,/static/stimuli/ax_sal_44.svg,,same,same
43,0,1657293684164,NA,NA,NA,NA,NA,NA,NA,NA,NA,NA,NA,html-button-response,13,80347,0.0-7.0-0.3,0,same,NA,NA,,,,8671,,,,"<p><span>Aike <i class=""fa-solid fa-robot robot1  inline-icon""></i></span> thinks the image is <span>toxic <i class=""fa-solid fa-biohazard toxic  inline-icon""></i></span> and tells us where it is looking at.</p><div class=""robot-label-img""><div class=""stack-img""><i class=""fa-solid fa-robot robot1 fa-3x stack-img-robot""></i><span class=""fa-stack fa-2x stack-img-bubble""><i class=""fa-solid fa-comment fa-stack-2x""></i><i class=""fa-solid fa-biohazard toxic fa-stack-1x""></i></span></div><img src=/static/stimuli/ax_sal_38.svg></div><div class=""prompt""><div class=""stack-img""><i class=""fa-brands fa-android robot2 fa-3x stack-img-robot""></i><span class=""fa-stack fa-2x stack-img-bubble""><i class=""fa-solid fa-comment fa-stack-2x""></i><i class=""fa-solid fa-biohazard toxic fa-stack-1x""></i></span></div></div>",results,toxic,toxic,38,,/static/stimuli/ax_sal_38.svg,,same,same
43,0,1657293684164,NA,NA,NA,NA,NA,NA,NA,NA,NA,NA,NA,html-button-response,14,90874,0.0-7.0-0.4,0,same,NA,NA,,,,10524,,,,"<p><span>Aike <i class=""fa-solid fa-robot robot1  inline-icon""></i></span> thinks the image is <span>toxic <i class=""fa-solid fa-biohazard toxic  inline-icon""></i></span> and tells us where it is looking at.</p><div class=""robot-label-img""><div class=""stack-img""><i class=""fa-solid fa-robot robot1 fa-3x stack-img-robot""></i><span class=""fa-stack fa-2x stack-img-bubble""><i class=""fa-solid fa-comment fa-stack-2x""></i><i class=""fa-solid fa-biohazard toxic fa-stack-1x""></i></span></div><img src=/static/stimuli/ax_sal_17.svg></div><div class=""prompt""><div class=""stack-img""><i class=""fa-brands fa-android robot2 fa-3x stack-img-robot""></i><span class=""fa-stack fa-2x stack-img-bubble""><i class=""fa-solid fa-comment fa-stack-2x""></i><i class=""fa-solid fa-biohazard toxic fa-stack-1x""></i></span></div></div>",results,toxic,toxic,17,,/static/stimuli/ax_sal_17.svg,,same,same
43,0,1657293684164,NA,NA,NA,NA,NA,NA,NA,NA,NA,NA,NA,html-button-response,15,94634,0.0-7.0-0.5,0,same,NA,NA,,,,3758,,,,"<p><span>Aike <i class=""fa-solid fa-robot robot1  inline-icon""></i></span> thinks the image is <span>toxic <i class=""fa-solid fa-biohazard toxic  inline-icon""></i></span> and tells us where it is looking at.</p><div class=""robot-label-img""><div class=""stack-img""><i class=""fa-solid fa-robot robot1 fa-3x stack-img-robot""></i><span class=""fa-stack fa-2x stack-img-bubble""><i class=""fa-solid fa-comment fa-stack-2x""></i><i class=""fa-solid fa-biohazard toxic fa-stack-1x""></i></span></div><img src=/static/stimuli/ax_sal_59.svg></div><div class=""prompt""><div class=""stack-img""><i class=""fa-brands fa-android robot2 fa-3x stack-img-robot""></i><span class=""fa-stack fa-2x stack-img-bubble""><i class=""fa-solid fa-comment fa-stack-2x""></i><i class=""fa-solid fa-biohazard toxic fa-stack-1x""></i></span></div></div>",results,toxic,toxic,59,,/static/stimuli/ax_sal_59.svg,,same,same
43,0,1657293684164,NA,NA,NA,NA,NA,NA,NA,NA,NA,NA,NA,html-button-response,16,97522,0.0-7.0-0.6,0,same,NA,NA,,,,2886,,,,"<p><span>Aike <i class=""fa-solid fa-robot robot1  inline-icon""></i></span> thinks the image is <span>safe <i class=""fa-solid fa-seedling safe  inline-icon""></i></span> and tells us where it is looking at.</p><div class=""robot-label-img""><div class=""stack-img""><i class=""fa-solid fa-robot robot1 fa-3x stack-img-robot""></i><span class=""fa-stack fa-2x stack-img-bubble""><i class=""fa-solid fa-comment fa-stack-2x""></i><i class=""fa-solid fa-seedling safe fa-stack-1x""></i></span></div><img src=/static/stimuli/ax_sal_18.svg></div><div class=""prompt""><div class=""stack-img""><i class=""fa-brands fa-android robot2 fa-3x stack-img-robot""></i><span class=""fa-stack fa-2x stack-img-bubble""><i class=""fa-solid fa-comment fa-stack-2x""></i><i class=""fa-solid fa-seedling safe fa-stack-1x""></i></span></div></div>",results,safe,safe,18,,/static/stimuli/ax_sal_18.svg,,same,same
43,0,1657293684164,NA,NA,NA,NA,NA,NA,NA,NA,NA,NA,NA,html-button-response,17,100592,0.0-7.0-0.7,0,same,NA,NA,,,,3067,,,,"<p><span>Aike <i class=""fa-solid fa-robot robot1  inline-icon""></i></span> thinks the image is <span>safe <i class=""fa-solid fa-seedling safe  inline-icon""></i></span> and tells us where it is looking at.</p><div class=""robot-label-img""><div class=""stack-img""><i class=""fa-solid fa-robot robot1 fa-3x stack-img-robot""></i><span class=""fa-stack fa-2x stack-img-bubble""><i class=""fa-solid fa-comment fa-stack-2x""></i><i class=""fa-solid fa-seedling safe fa-stack-1x""></i></span></div><img src=/static/stimuli/ax_sal_35.svg></div><div class=""prompt""><div class=""stack-img""><i class=""fa-brands fa-android robot2 fa-3x stack-img-robot""></i><span class=""fa-stack fa-2x stack-img-bubble""><i class=""fa-solid fa-comment fa-stack-2x""></i><i class=""fa-solid fa-seedling safe fa-stack-1x""></i></span></div></div>",results,safe,safe,35,,/static/stimuli/ax_sal_35.svg,,same,same
43,0,1657293684164,NA,NA,NA,NA,NA,NA,NA,NA,NA,NA,NA,html-button-response,18,103530,0.0-7.0-0.8,0,same,NA,NA,,,,2937,,,,"<p><span>Aike <i class=""fa-solid fa-robot robot1  inline-icon""></i></span> thinks the image is <span>safe <i class=""fa-solid fa-seedling safe  inline-icon""></i></span> and tells us where it is looking at.</p><div class=""robot-label-img""><div class=""stack-img""><i class=""fa-solid fa-robot robot1 fa-3x stack-img-robot""></i><span class=""fa-stack fa-2x stack-img-bubble""><i class=""fa-solid fa-comment fa-stack-2x""></i><i class=""fa-solid fa-seedling safe fa-stack-1x""></i></span></div><img src=/static/stimuli/ax_sal_45.svg></div><div class=""prompt""><div class=""stack-img""><i class=""fa-brands fa-android robot2 fa-3x stack-img-robot""></i><span class=""fa-stack fa-2x stack-img-bubble""><i class=""fa-solid fa-comment fa-stack-2x""></i><i class=""fa-solid fa-seedling safe fa-stack-1x""></i></span></div></div>",results,safe,safe,45,,/static/stimuli/ax_sal_45.svg,,same,same
43,0,1657293684164,NA,NA,NA,NA,NA,NA,NA,NA,NA,NA,NA,html-button-response,19,114139,0.0-7.0-0.9,0,same,NA,NA,,,,10607,,,,"<p><span>Aike <i class=""fa-solid fa-robot robot1  inline-icon""></i></span> thinks the image is <span>toxic <i class=""fa-solid fa-biohazard toxic  inline-icon""></i></span> and tells us where it is looking at.</p><div class=""robot-label-img""><div class=""stack-img""><i class=""fa-solid fa-robot robot1 fa-3x stack-img-robot""></i><span class=""fa-stack fa-2x stack-img-bubble""><i class=""fa-solid fa-comment fa-stack-2x""></i><i class=""fa-solid fa-biohazard toxic fa-stack-1x""></i></span></div><img src=/static/stimuli/ax_sal_15.svg></div><div class=""prompt""><div class=""stack-img""><i class=""fa-brands fa-android robot2 fa-3x stack-img-robot""></i><span class=""fa-stack fa-2x stack-img-bubble""><i class=""fa-solid fa-comment fa-stack-2x""></i><i class=""fa-solid fa-biohazard toxic fa-stack-1x""></i></span></div></div>",results,toxic,toxic,15,,/static/stimuli/ax_sal_15.svg,,same,same
43,0,1657293684164,NA,NA,NA,NA,NA,NA,NA,NA,NA,NA,NA,html-button-response,20,115801,0.0-7.0-0.10,0,same,NA,NA,,,,1661,,,,"<p><span>Aike <i class=""fa-solid fa-robot robot1  inline-icon""></i></span> thinks the image is <span>toxic <i class=""fa-solid fa-biohazard toxic  inline-icon""></i></span> and tells us where it is looking at.</p><div class=""robot-label-img""><div class=""stack-img""><i class=""fa-solid fa-robot robot1 fa-3x stack-img-robot""></i><span class=""fa-stack fa-2x stack-img-bubble""><i class=""fa-solid fa-comment fa-stack-2x""></i><i class=""fa-solid fa-biohazard toxic fa-stack-1x""></i></span></div><img src=/static/stimuli/ax_sal_10.svg></div><div class=""prompt""><div class=""stack-img""><i class=""fa-brands fa-android robot2 fa-3x stack-img-robot""></i><span class=""fa-stack fa-2x stack-img-bubble""><i class=""fa-solid fa-comment fa-stack-2x""></i><i class=""fa-solid fa-biohazard toxic fa-stack-1x""></i></span></div></div>",results,toxic,toxic,10,,/static/stimuli/ax_sal_10.svg,,same,same
43,0,1657293684164,NA,NA,NA,NA,NA,NA,NA,NA,NA,NA,NA,html-button-response,21,119476,0.0-7.0-0.11,0,same,NA,NA,,,,3673,,,,"<p><span>Aike <i class=""fa-solid fa-robot robot1  inline-icon""></i></span> thinks the image is <span>safe <i class=""fa-solid fa-seedling safe  inline-icon""></i></span> and tells us where it is looking at.</p><div class=""robot-label-img""><div class=""stack-img""><i class=""fa-solid fa-robot robot1 fa-3x stack-img-robot""></i><span class=""fa-stack fa-2x stack-img-bubble""><i class=""fa-solid fa-comment fa-stack-2x""></i><i class=""fa-solid fa-seedling safe fa-stack-1x""></i></span></div><img src=/static/stimuli/ax_sal_22.svg></div><div class=""prompt""><div class=""stack-img""><i class=""fa-brands fa-android robot2 fa-3x stack-img-robot""></i><span class=""fa-stack fa-2x stack-img-bubble""><i class=""fa-solid fa-comment fa-stack-2x""></i><i class=""fa-solid fa-seedling safe fa-stack-1x""></i></span></div></div>",results,safe,safe,22,,/static/stimuli/ax_sal_22.svg,,same,same
43,0,1657293684164,NA,NA,NA,NA,NA,NA,NA,NA,NA,NA,NA,html-button-response,22,121689,0.0-7.0-0.12,0,same,NA,NA,,,,2211,,,,"<p><span>Aike <i class=""fa-solid fa-robot robot1  inline-icon""></i></span> thinks the image is <span>toxic <i class=""fa-solid fa-biohazard toxic  inline-icon""></i></span> and tells us where it is looking at.</p><div class=""robot-label-img""><div class=""stack-img""><i class=""fa-solid fa-robot robot1 fa-3x stack-img-robot""></i><span class=""fa-stack fa-2x stack-img-bubble""><i class=""fa-solid fa-comment fa-stack-2x""></i><i class=""fa-solid fa-biohazard toxic fa-stack-1x""></i></span></div><img src=/static/stimuli/ax_sal_51.svg></div><div class=""prompt""><div class=""stack-img""><i class=""fa-brands fa-android robot2 fa-3x stack-img-robot""></i><span class=""fa-stack fa-2x stack-img-bubble""><i class=""fa-solid fa-comment fa-stack-2x""></i><i class=""fa-solid fa-biohazard toxic fa-stack-1x""></i></span></div></div>",results,toxic,toxic,51,,/static/stimuli/ax_sal_51.svg,,same,same
43,0,1657293684164,NA,NA,NA,NA,NA,NA,NA,NA,NA,NA,NA,html-button-response,23,123851,0.0-7.0-0.13,0,same,NA,NA,,,,2160,,,,"<p><span>Aike <i class=""fa-solid fa-robot robot1  inline-icon""></i></span> thinks the image is <span>safe <i class=""fa-solid fa-seedling safe  inline-icon""></i></span> and tells us where it is looking at.</p><div class=""robot-label-img""><div class=""stack-img""><i class=""fa-solid fa-robot robot1 fa-3x stack-img-robot""></i><span class=""fa-stack fa-2x stack-img-bubble""><i class=""fa-solid fa-comment fa-stack-2x""></i><i class=""fa-solid fa-seedling safe fa-stack-1x""></i></span></div><img src=/static/stimuli/ax_sal_28.svg></div><div class=""prompt""><div class=""stack-img""><i class=""fa-brands fa-android robot2 fa-3x stack-img-robot""></i><span class=""fa-stack fa-2x stack-img-bubble""><i class=""fa-solid fa-comment fa-stack-2x""></i><i class=""fa-solid fa-seedling safe fa-stack-1x""></i></span></div></div>",results,safe,safe,28,,/static/stimuli/ax_sal_28.svg,,same,same
43,0,1657293684164,NA,NA,NA,NA,NA,NA,NA,NA,NA,NA,NA,html-button-response,24,125490,0.0-7.0-0.14,0,same,NA,NA,,,,1638,,,,"<p><span>Aike <i class=""fa-solid fa-robot robot1  inline-icon""></i></span> thinks the image is <span>safe <i class=""fa-solid fa-seedling safe  inline-icon""></i></span> and tells us where it is looking at.</p><div class=""robot-label-img""><div class=""stack-img""><i class=""fa-solid fa-robot robot1 fa-3x stack-img-robot""></i><span class=""fa-stack fa-2x stack-img-bubble""><i class=""fa-solid fa-comment fa-stack-2x""></i><i class=""fa-solid fa-seedling safe fa-stack-1x""></i></span></div><img src=/static/stimuli/ax_sal_36.svg></div><div class=""prompt""><div class=""stack-img""><i class=""fa-brands fa-android robot2 fa-3x stack-img-robot""></i><span class=""fa-stack fa-2x stack-img-bubble""><i class=""fa-solid fa-comment fa-stack-2x""></i><i class=""fa-solid fa-seedling safe fa-stack-1x""></i></span></div></div>",results,safe,safe,36,,/static/stimuli/ax_sal_36.svg,,same,same
43,0,1657293684164,NA,NA,NA,NA,NA,NA,NA,NA,NA,NA,NA,html-button-response,25,127346,0.0-7.0-0.15,0,same,NA,NA,,,,1855,,,,"<p><span>Aike <i class=""fa-solid fa-robot robot1  inline-icon""></i></span> thinks the image is <span>safe <i class=""fa-solid fa-seedling safe  inline-icon""></i></span> and tells us where it is looking at.</p><div class=""robot-label-img""><div class=""stack-img""><i class=""fa-solid fa-robot robot1 fa-3x stack-img-robot""></i><span class=""fa-stack fa-2x stack-img-bubble""><i class=""fa-solid fa-comment fa-stack-2x""></i><i class=""fa-solid fa-seedling safe fa-stack-1x""></i></span></div><img src=/static/stimuli/ax_sal_58.svg></div><div class=""prompt""><div class=""stack-img""><i class=""fa-brands fa-android robot2 fa-3x stack-img-robot""></i><span class=""fa-stack fa-2x stack-img-bubble""><i class=""fa-solid fa-comment fa-stack-2x""></i><i class=""fa-solid fa-seedling safe fa-stack-1x""></i></span></div></div>",results,safe,safe,58,,/static/stimuli/ax_sal_58.svg,,same,same
43,0,1657293684164,NA,NA,NA,NA,NA,NA,NA,NA,NA,NA,NA,html-button-response,26,129697,0.0-7.0-0.16,0,same,NA,NA,,,,2350,,,,"<p><span>Aike <i class=""fa-solid fa-robot robot1  inline-icon""></i></span> thinks the image is <span>safe <i class=""fa-solid fa-seedling safe  inline-icon""></i></span> and tells us where it is looking at.</p><div class=""robot-label-img""><div class=""stack-img""><i class=""fa-solid fa-robot robot1 fa-3x stack-img-robot""></i><span class=""fa-stack fa-2x stack-img-bubble""><i class=""fa-solid fa-comment fa-stack-2x""></i><i class=""fa-solid fa-seedling safe fa-stack-1x""></i></span></div><img src=/static/stimuli/ax_sal_20.svg></div><div class=""prompt""><div class=""stack-img""><i class=""fa-brands fa-android robot2 fa-3x stack-img-robot""></i><span class=""fa-stack fa-2x stack-img-bubble""><i class=""fa-solid fa-comment fa-stack-2x""></i><i class=""fa-solid fa-seedling safe fa-stack-1x""></i></span></div></div>",results,safe,safe,20,,/static/stimuli/ax_sal_20.svg,,same,same
43,0,1657293684164,NA,NA,NA,NA,NA,NA,NA,NA,NA,NA,NA,html-button-response,27,131725,0.0-7.0-0.17,0,same,NA,NA,,,,2026,,,,"<p><span>Aike <i class=""fa-solid fa-robot robot1  inline-icon""></i></span> thinks the image is <span>toxic <i class=""fa-solid fa-biohazard toxic  inline-icon""></i></span> and tells us where it is looking at.</p><div class=""robot-label-img""><div class=""stack-img""><i class=""fa-solid fa-robot robot1 fa-3x stack-img-robot""></i><span class=""fa-stack fa-2x stack-img-bubble""><i class=""fa-solid fa-comment fa-stack-2x""></i><i class=""fa-solid fa-biohazard toxic fa-stack-1x""></i></span></div><img src=/static/stimuli/ax_sal_21.svg></div><div class=""prompt""><div class=""stack-img""><i class=""fa-brands fa-android robot2 fa-3x stack-img-robot""></i><span class=""fa-stack fa-2x stack-img-bubble""><i class=""fa-solid fa-comment fa-stack-2x""></i><i class=""fa-solid fa-biohazard toxic fa-stack-1x""></i></span></div></div>",results,toxic,toxic,21,,/static/stimuli/ax_sal_21.svg,,same,same
43,0,1657293684164,NA,NA,NA,NA,NA,NA,NA,NA,NA,NA,NA,html-button-response,28,133310,0.0-7.0-0.18,0,same,NA,NA,,,,1583,,,,"<p><span>Aike <i class=""fa-solid fa-robot robot1  inline-icon""></i></span> thinks the image is <span>toxic <i class=""fa-solid fa-biohazard toxic  inline-icon""></i></span> and tells us where it is looking at.</p><div class=""robot-label-img""><div class=""stack-img""><i class=""fa-solid fa-robot robot1 fa-3x stack-img-robot""></i><span class=""fa-stack fa-2x stack-img-bubble""><i class=""fa-solid fa-comment fa-stack-2x""></i><i class=""fa-solid fa-biohazard toxic fa-stack-1x""></i></span></div><img src=/static/stimuli/ax_sal_41.svg></div><div class=""prompt""><div class=""stack-img""><i class=""fa-brands fa-android robot2 fa-3x stack-img-robot""></i><span class=""fa-stack fa-2x stack-img-bubble""><i class=""fa-solid fa-comment fa-stack-2x""></i><i class=""fa-solid fa-biohazard toxic fa-stack-1x""></i></span></div></div>",results,toxic,toxic,41,,/static/stimuli/ax_sal_41.svg,,same,same
43,0,1657293684164,NA,NA,NA,NA,NA,NA,NA,NA,NA,NA,NA,html-button-response,29,135668,0.0-7.0-0.19,0,same,NA,NA,,,,2356,,,,"<p><span>Aike <i class=""fa-solid fa-robot robot1  inline-icon""></i></span> thinks the image is <span>safe <i class=""fa-solid fa-seedling safe  inline-icon""></i></span> and tells us where it is looking at.</p><div class=""robot-label-img""><div class=""stack-img""><i class=""fa-solid fa-robot robot1 fa-3x stack-img-robot""></i><span class=""fa-stack fa-2x stack-img-bubble""><i class=""fa-solid fa-comment fa-stack-2x""></i><i class=""fa-solid fa-seedling safe fa-stack-1x""></i></span></div><img src=/static/stimuli/ax_sal_29.svg></div><div class=""prompt""><div class=""stack-img""><i class=""fa-brands fa-android robot2 fa-3x stack-img-robot""></i><span class=""fa-stack fa-2x stack-img-bubble""><i class=""fa-solid fa-comment fa-stack-2x""></i><i class=""fa-solid fa-seedling safe fa-stack-1x""></i></span></div></div>",results,safe,safe,29,,/static/stimuli/ax_sal_29.svg,,same,same
43,0,1657293684164,NA,NA,NA,NA,NA,NA,NA,NA,NA,NA,NA,html-button-response,30,137862,0.0-7.0-0.20,0,same,NA,NA,,,,2193,,,,"<p><span>Aike <i class=""fa-solid fa-robot robot1  inline-icon""></i></span> thinks the image is <span>toxic <i class=""fa-solid fa-biohazard toxic  inline-icon""></i></span> and tells us where it is looking at.</p><div class=""robot-label-img""><div class=""stack-img""><i class=""fa-solid fa-robot robot1 fa-3x stack-img-robot""></i><span class=""fa-stack fa-2x stack-img-bubble""><i class=""fa-solid fa-comment fa-stack-2x""></i><i class=""fa-solid fa-biohazard toxic fa-stack-1x""></i></span></div><img src=/static/stimuli/ax_sal_27.svg></div><div class=""prompt""><div class=""stack-img""><i class=""fa-brands fa-android robot2 fa-3x stack-img-robot""></i><span class=""fa-stack fa-2x stack-img-bubble""><i class=""fa-solid fa-comment fa-stack-2x""></i><i class=""fa-solid fa-biohazard toxic fa-stack-1x""></i></span></div></div>",results,toxic,toxic,27,,/static/stimuli/ax_sal_27.svg,,same,same
43,0,1657293684164,NA,NA,NA,NA,NA,NA,NA,NA,NA,NA,NA,html-button-response,31,139427,0.0-7.0-0.21,0,same,NA,NA,,,,1563,,,,"<p><span>Aike <i class=""fa-solid fa-robot robot1  inline-icon""></i></span> thinks the image is <span>toxic <i class=""fa-solid fa-biohazard toxic  inline-icon""></i></span> and tells us where it is looking at.</p><div class=""robot-label-img""><div class=""stack-img""><i class=""fa-solid fa-robot robot1 fa-3x stack-img-robot""></i><span class=""fa-stack fa-2x stack-img-bubble""><i class=""fa-solid fa-comment fa-stack-2x""></i><i class=""fa-solid fa-biohazard toxic fa-stack-1x""></i></span></div><img src=/static/stimuli/ax_sal_32.svg></div><div class=""prompt""><div class=""stack-img""><i class=""fa-brands fa-android robot2 fa-3x stack-img-robot""></i><span class=""fa-stack fa-2x stack-img-bubble""><i class=""fa-solid fa-comment fa-stack-2x""></i><i class=""fa-solid fa-biohazard toxic fa-stack-1x""></i></span></div></div>",results,toxic,toxic,32,,/static/stimuli/ax_sal_32.svg,,same,same
43,0,1657293684164,NA,NA,NA,NA,NA,NA,NA,NA,NA,NA,NA,html-button-response,32,142059,0.0-7.0-0.22,0,same,NA,NA,,,,2631,,,,"<p><span>Aike <i class=""fa-solid fa-robot robot1  inline-icon""></i></span> thinks the image is <span>toxic <i class=""fa-solid fa-biohazard toxic  inline-icon""></i></span> and tells us where it is looking at.</p><div class=""robot-label-img""><div class=""stack-img""><i class=""fa-solid fa-robot robot1 fa-3x stack-img-robot""></i><span class=""fa-stack fa-2x stack-img-bubble""><i class=""fa-solid fa-comment fa-stack-2x""></i><i class=""fa-solid fa-biohazard toxic fa-stack-1x""></i></span></div><img src=/static/stimuli/ax_sal_11.svg></div><div class=""prompt""><div class=""stack-img""><i class=""fa-brands fa-android robot2 fa-3x stack-img-robot""></i><span class=""fa-stack fa-2x stack-img-bubble""><i class=""fa-solid fa-comment fa-stack-2x""></i><i class=""fa-solid fa-biohazard toxic fa-stack-1x""></i></span></div></div>",results,toxic,toxic,11,,/static/stimuli/ax_sal_11.svg,,same,same
43,0,1657293684164,NA,NA,NA,NA,NA,NA,NA,NA,NA,NA,NA,html-button-response,33,143618,0.0-7.0-0.23,0,same,NA,NA,,,,1557,,,,"<p><span>Aike <i class=""fa-solid fa-robot robot1  inline-icon""></i></span> thinks the image is <span>safe <i class=""fa-solid fa-seedling safe  inline-icon""></i></span> and tells us where it is looking at.</p><div class=""robot-label-img""><div class=""stack-img""><i class=""fa-solid fa-robot robot1 fa-3x stack-img-robot""></i><span class=""fa-stack fa-2x stack-img-bubble""><i class=""fa-solid fa-comment fa-stack-2x""></i><i class=""fa-solid fa-seedling safe fa-stack-1x""></i></span></div><img src=/static/stimuli/ax_sal_42.svg></div><div class=""prompt""><div class=""stack-img""><i class=""fa-brands fa-android robot2 fa-3x stack-img-robot""></i><span class=""fa-stack fa-2x stack-img-bubble""><i class=""fa-solid fa-comment fa-stack-2x""></i><i class=""fa-solid fa-seedling safe fa-stack-1x""></i></span></div></div>",results,safe,safe,42,,/static/stimuli/ax_sal_42.svg,,same,same
43,0,1657293684164,NA,NA,NA,NA,NA,NA,NA,NA,NA,NA,NA,html-button-response,34,145107,0.0-7.0-0.24,0,same,NA,NA,,,,1487,,,,"<p><span>Aike <i class=""fa-solid fa-robot robot1  inline-icon""></i></span> thinks the image is <span>safe <i class=""fa-solid fa-seedling safe  inline-icon""></i></span> and tells us where it is looking at.</p><div class=""robot-label-img""><div class=""stack-img""><i class=""fa-solid fa-robot robot1 fa-3x stack-img-robot""></i><span class=""fa-stack fa-2x stack-img-bubble""><i class=""fa-solid fa-comment fa-stack-2x""></i><i class=""fa-solid fa-seedling safe fa-stack-1x""></i></span></div><img src=/static/stimuli/ax_sal_24.svg></div><div class=""prompt""><div class=""stack-img""><i class=""fa-brands fa-android robot2 fa-3x stack-img-robot""></i><span class=""fa-stack fa-2x stack-img-bubble""><i class=""fa-solid fa-comment fa-stack-2x""></i><i class=""fa-solid fa-seedling safe fa-stack-1x""></i></span></div></div>",results,safe,safe,24,,/static/stimuli/ax_sal_24.svg,,same,same
43,0,1657293684164,NA,NA,NA,NA,NA,NA,NA,NA,NA,NA,NA,html-button-response,35,147049,0.0-7.0-0.25,0,same,NA,NA,,,,1941,,,,"<p><span>Aike <i class=""fa-solid fa-robot robot1  inline-icon""></i></span> thinks the image is <span>safe <i class=""fa-solid fa-seedling safe  inline-icon""></i></span> and tells us where it is looking at.</p><div class=""robot-label-img""><div class=""stack-img""><i class=""fa-solid fa-robot robot1 fa-3x stack-img-robot""></i><span class=""fa-stack fa-2x stack-img-bubble""><i class=""fa-solid fa-comment fa-stack-2x""></i><i class=""fa-solid fa-seedling safe fa-stack-1x""></i></span></div><img src=/static/stimuli/ax_sal_34.svg></div><div class=""prompt""><div class=""stack-img""><i class=""fa-brands fa-android robot2 fa-3x stack-img-robot""></i><span class=""fa-stack fa-2x stack-img-bubble""><i class=""fa-solid fa-comment fa-stack-2x""></i><i class=""fa-solid fa-seedling safe fa-stack-1x""></i></span></div></div>",results,safe,safe,34,,/static/stimuli/ax_sal_34.svg,,same,same
43,0,1657293684164,NA,NA,NA,NA,NA,NA,NA,NA,NA,NA,NA,html-button-response,36,149556,0.0-7.0-0.26,0,same,NA,NA,,,,2505,,,,"<p><span>Aike <i class=""fa-solid fa-robot robot1  inline-icon""></i></span> thinks the image is <span>toxic <i class=""fa-solid fa-biohazard toxic  inline-icon""></i></span> and tells us where it is looking at.</p><div class=""robot-label-img""><div class=""stack-img""><i class=""fa-solid fa-robot robot1 fa-3x stack-img-robot""></i><span class=""fa-stack fa-2x stack-img-bubble""><i class=""fa-solid fa-comment fa-stack-2x""></i><i class=""fa-solid fa-biohazard toxic fa-stack-1x""></i></span></div><img src=/static/stimuli/ax_sal_14.svg></div><div class=""prompt""><div class=""stack-img""><i class=""fa-brands fa-android robot2 fa-3x stack-img-robot""></i><span class=""fa-stack fa-2x stack-img-bubble""><i class=""fa-solid fa-comment fa-stack-2x""></i><i class=""fa-solid fa-biohazard toxic fa-stack-1x""></i></span></div></div>",results,toxic,toxic,14,,/static/stimuli/ax_sal_14.svg,,same,same
43,0,1657293684164,NA,NA,NA,NA,NA,NA,NA,NA,NA,NA,NA,html-button-response,37,151185,0.0-7.0-0.27,0,same,NA,NA,,,,1628,,,,"<p><span>Aike <i class=""fa-solid fa-robot robot1  inline-icon""></i></span> thinks the image is <span>toxic <i class=""fa-solid fa-biohazard toxic  inline-icon""></i></span> and tells us where it is looking at.</p><div class=""robot-label-img""><div class=""stack-img""><i class=""fa-solid fa-robot robot1 fa-3x stack-img-robot""></i><span class=""fa-stack fa-2x stack-img-bubble""><i class=""fa-solid fa-comment fa-stack-2x""></i><i class=""fa-solid fa-biohazard toxic fa-stack-1x""></i></span></div><img src=/static/stimuli/ax_sal_31.svg></div><div class=""prompt""><div class=""stack-img""><i class=""fa-brands fa-android robot2 fa-3x stack-img-robot""></i><span class=""fa-stack fa-2x stack-img-bubble""><i class=""fa-solid fa-comment fa-stack-2x""></i><i class=""fa-solid fa-biohazard toxic fa-stack-1x""></i></span></div></div>",results,toxic,toxic,31,,/static/stimuli/ax_sal_31.svg,,same,same
43,0,1657293684164,NA,NA,NA,NA,NA,NA,NA,NA,NA,NA,NA,html-button-response,38,153090,0.0-7.0-0.28,0,same,NA,NA,,,,1904,,,,"<p><span>Aike <i class=""fa-solid fa-robot robot1  inline-icon""></i></span> thinks the image is <span>safe <i class=""fa-solid fa-seedling safe  inline-icon""></i></span> and tells us where it is looking at.</p><div class=""robot-label-img""><div class=""stack-img""><i class=""fa-solid fa-robot robot1 fa-3x stack-img-robot""></i><span class=""fa-stack fa-2x stack-img-bubble""><i class=""fa-solid fa-comment fa-stack-2x""></i><i class=""fa-solid fa-seedling safe fa-stack-1x""></i></span></div><img src=/static/stimuli/ax_sal_53.svg></div><div class=""prompt""><div class=""stack-img""><i class=""fa-brands fa-android robot2 fa-3x stack-img-robot""></i><span class=""fa-stack fa-2x stack-img-bubble""><i class=""fa-solid fa-comment fa-stack-2x""></i><i class=""fa-solid fa-seedling safe fa-stack-1x""></i></span></div></div>",results,safe,safe,53,,/static/stimuli/ax_sal_53.svg,,same,same
43,0,1657293684164,NA,NA,NA,NA,NA,NA,NA,NA,NA,NA,NA,html-button-response,39,154641,0.0-7.0-0.29,0,same,NA,NA,,,,1549,,,,"<p><span>Aike <i class=""fa-solid fa-robot robot1  inline-icon""></i></span> thinks the image is <span>safe <i class=""fa-solid fa-seedling safe  inline-icon""></i></span> and tells us where it is looking at.</p><div class=""robot-label-img""><div class=""stack-img""><i class=""fa-solid fa-robot robot1 fa-3x stack-img-robot""></i><span class=""fa-stack fa-2x stack-img-bubble""><i class=""fa-solid fa-comment fa-stack-2x""></i><i class=""fa-solid fa-seedling safe fa-stack-1x""></i></span></div><img src=/static/stimuli/ax_sal_52.svg></div><div class=""prompt""><div class=""stack-img""><i class=""fa-brands fa-android robot2 fa-3x stack-img-robot""></i><span class=""fa-stack fa-2x stack-img-bubble""><i class=""fa-solid fa-comment fa-stack-2x""></i><i class=""fa-solid fa-seedling safe fa-stack-1x""></i></span></div></div>",results,safe,safe,52,,/static/stimuli/ax_sal_52.svg,,same,same
43,0,1657293684164,NA,NA,NA,NA,NA,NA,NA,NA,NA,NA,NA,html-button-response,40,155958,0.0-7.0-0.30,0,same,NA,NA,,,,1317,,,,"<p><span>Aike <i class=""fa-solid fa-robot robot1  inline-icon""></i></span> thinks the image is <span>safe <i class=""fa-solid fa-seedling safe  inline-icon""></i></span> and tells us where it is looking at.</p><div class=""robot-label-img""><div class=""stack-img""><i class=""fa-solid fa-robot robot1 fa-3x stack-img-robot""></i><span class=""fa-stack fa-2x stack-img-bubble""><i class=""fa-solid fa-comment fa-stack-2x""></i><i class=""fa-solid fa-seedling safe fa-stack-1x""></i></span></div><img src=/static/stimuli/ax_sal_56.svg></div><div class=""prompt""><div class=""stack-img""><i class=""fa-brands fa-android robot2 fa-3x stack-img-robot""></i><span class=""fa-stack fa-2x stack-img-bubble""><i class=""fa-solid fa-comment fa-stack-2x""></i><i class=""fa-solid fa-seedling safe fa-stack-1x""></i></span></div></div>",results,safe,safe,56,,/static/stimuli/ax_sal_56.svg,,same,same
43,0,1657293684164,NA,NA,NA,NA,NA,NA,NA,NA,NA,NA,NA,html-button-response,41,157473,0.0-7.0-0.31,0,same,NA,NA,,,,1514,,,,"<p><span>Aike <i class=""fa-solid fa-robot robot1  inline-icon""></i></span> thinks the image is <span>toxic <i class=""fa-solid fa-biohazard toxic  inline-icon""></i></span> and tells us where it is looking at.</p><div class=""robot-label-img""><div class=""stack-img""><i class=""fa-solid fa-robot robot1 fa-3x stack-img-robot""></i><span class=""fa-stack fa-2x stack-img-bubble""><i class=""fa-solid fa-comment fa-stack-2x""></i><i class=""fa-solid fa-biohazard toxic fa-stack-1x""></i></span></div><img src=/static/stimuli/ax_sal_55.svg></div><div class=""prompt""><div class=""stack-img""><i class=""fa-brands fa-android robot2 fa-3x stack-img-robot""></i><span class=""fa-stack fa-2x stack-img-bubble""><i class=""fa-solid fa-comment fa-stack-2x""></i><i class=""fa-solid fa-biohazard toxic fa-stack-1x""></i></span></div></div>",results,toxic,toxic,55,,/static/stimuli/ax_sal_55.svg,,same,same
43,0,1657293684164,NA,NA,NA,NA,NA,NA,NA,NA,NA,NA,NA,html-button-response,42,158924,0.0-7.0-0.32,0,same,NA,NA,,,,1450,,,,"<p><span>Aike <i class=""fa-solid fa-robot robot1  inline-icon""></i></span> thinks the image is <span>safe <i class=""fa-solid fa-seedling safe  inline-icon""></i></span> and tells us where it is looking at.</p><div class=""robot-label-img""><div class=""stack-img""><i class=""fa-solid fa-robot robot1 fa-3x stack-img-robot""></i><span class=""fa-stack fa-2x stack-img-bubble""><i class=""fa-solid fa-comment fa-stack-2x""></i><i class=""fa-solid fa-seedling safe fa-stack-1x""></i></span></div><img src=/static/stimuli/ax_sal_37.svg></div><div class=""prompt""><div class=""stack-img""><i class=""fa-brands fa-android robot2 fa-3x stack-img-robot""></i><span class=""fa-stack fa-2x stack-img-bubble""><i class=""fa-solid fa-comment fa-stack-2x""></i><i class=""fa-solid fa-seedling safe fa-stack-1x""></i></span></div></div>",results,safe,safe,37,,/static/stimuli/ax_sal_37.svg,,same,same
43,0,1657293684164,NA,NA,NA,NA,NA,NA,NA,NA,NA,NA,NA,html-button-response,43,160508,0.0-7.0-0.33,0,same,NA,NA,,,,1582,,,,"<p><span>Aike <i class=""fa-solid fa-robot robot1  inline-icon""></i></span> thinks the image is <span>toxic <i class=""fa-solid fa-biohazard toxic  inline-icon""></i></span> and tells us where it is looking at.</p><div class=""robot-label-img""><div class=""stack-img""><i class=""fa-solid fa-robot robot1 fa-3x stack-img-robot""></i><span class=""fa-stack fa-2x stack-img-bubble""><i class=""fa-solid fa-comment fa-stack-2x""></i><i class=""fa-solid fa-biohazard toxic fa-stack-1x""></i></span></div><img src=/static/stimuli/ax_sal_19.svg></div><div class=""prompt""><div class=""stack-img""><i class=""fa-brands fa-android robot2 fa-3x stack-img-robot""></i><span class=""fa-stack fa-2x stack-img-bubble""><i class=""fa-solid fa-comment fa-stack-2x""></i><i class=""fa-solid fa-biohazard toxic fa-stack-1x""></i></span></div></div>",results,toxic,toxic,19,,/static/stimuli/ax_sal_19.svg,,same,same
43,0,1657293684164,NA,NA,NA,NA,NA,NA,NA,NA,NA,NA,NA,html-button-response,44,162069,0.0-7.0-0.34,0,same,NA,NA,,,,1559,,,,"<p><span>Aike <i class=""fa-solid fa-robot robot1  inline-icon""></i></span> thinks the image is <span>toxic <i class=""fa-solid fa-biohazard toxic  inline-icon""></i></span> and tells us where it is looking at.</p><div class=""robot-label-img""><div class=""stack-img""><i class=""fa-solid fa-robot robot1 fa-3x stack-img-robot""></i><span class=""fa-stack fa-2x stack-img-bubble""><i class=""fa-solid fa-comment fa-stack-2x""></i><i class=""fa-solid fa-biohazard toxic fa-stack-1x""></i></span></div><img src=/static/stimuli/ax_sal_33.svg></div><div class=""prompt""><div class=""stack-img""><i class=""fa-brands fa-android robot2 fa-3x stack-img-robot""></i><span class=""fa-stack fa-2x stack-img-bubble""><i class=""fa-solid fa-comment fa-stack-2x""></i><i class=""fa-solid fa-biohazard toxic fa-stack-1x""></i></span></div></div>",results,toxic,toxic,33,,/static/stimuli/ax_sal_33.svg,,same,same
43,0,1657293684164,NA,NA,NA,NA,NA,NA,NA,NA,NA,NA,NA,html-button-response,45,164025,0.0-7.0-0.35,0,same,NA,NA,,,,1955,,,,"<p><span>Aike <i class=""fa-solid fa-robot robot1  inline-icon""></i></span> thinks the image is <span>safe <i class=""fa-solid fa-seedling safe  inline-icon""></i></span> and tells us where it is looking at.</p><div class=""robot-label-img""><div class=""stack-img""><i class=""fa-solid fa-robot robot1 fa-3x stack-img-robot""></i><span class=""fa-stack fa-2x stack-img-bubble""><i class=""fa-solid fa-comment fa-stack-2x""></i><i class=""fa-solid fa-seedling safe fa-stack-1x""></i></span></div><img src=/static/stimuli/ax_sal_54.svg></div><div class=""prompt""><div class=""stack-img""><i class=""fa-brands fa-android robot2 fa-3x stack-img-robot""></i><span class=""fa-stack fa-2x stack-img-bubble""><i class=""fa-solid fa-comment fa-stack-2x""></i><i class=""fa-solid fa-seedling safe fa-stack-1x""></i></span></div></div>",results,safe,safe,54,,/static/stimuli/ax_sal_54.svg,,same,same
43,0,1657293684164,NA,NA,NA,NA,NA,NA,NA,NA,NA,NA,NA,html-button-response,46,167219,0.0-7.0-0.36,0,same,NA,NA,,,,3193,,,,"<p><span>Aike <i class=""fa-solid fa-robot robot1  inline-icon""></i></span> thinks the image is <span>toxic <i class=""fa-solid fa-biohazard toxic  inline-icon""></i></span> and tells us where it is looking at.</p><div class=""robot-label-img""><div class=""stack-img""><i class=""fa-solid fa-robot robot1 fa-3x stack-img-robot""></i><span class=""fa-stack fa-2x stack-img-bubble""><i class=""fa-solid fa-comment fa-stack-2x""></i><i class=""fa-solid fa-biohazard toxic fa-stack-1x""></i></span></div><img src=/static/stimuli/ax_sal_49.svg></div><div class=""prompt""><div class=""stack-img""><i class=""fa-brands fa-android robot2 fa-3x stack-img-robot""></i><span class=""fa-stack fa-2x stack-img-bubble""><i class=""fa-solid fa-comment fa-stack-2x""></i><i class=""fa-solid fa-biohazard toxic fa-stack-1x""></i></span></div></div>",results,toxic,toxic,49,,/static/stimuli/ax_sal_49.svg,,same,same
43,0,1657293684164,NA,NA,NA,NA,NA,NA,NA,NA,NA,NA,NA,html-button-response,47,170210,0.0-7.0-0.37,0,same,NA,NA,,,,2988,,,,"<p><span>Aike <i class=""fa-solid fa-robot robot1  inline-icon""></i></span> thinks the image is <span>safe <i class=""fa-solid fa-seedling safe  inline-icon""></i></span> and tells us where it is looking at.</p><div class=""robot-label-img""><div class=""stack-img""><i class=""fa-solid fa-robot robot1 fa-3x stack-img-robot""></i><span class=""fa-stack fa-2x stack-img-bubble""><i class=""fa-solid fa-comment fa-stack-2x""></i><i class=""fa-solid fa-seedling safe fa-stack-1x""></i></span></div><img src=/static/stimuli/ax_sal_39.svg></div><div class=""prompt""><div class=""stack-img""><i class=""fa-brands fa-android robot2 fa-3x stack-img-robot""></i><span class=""fa-stack fa-2x stack-img-bubble""><i class=""fa-solid fa-comment fa-stack-2x""></i><i class=""fa-solid fa-seedling safe fa-stack-1x""></i></span></div></div>",results,safe,safe,39,,/static/stimuli/ax_sal_39.svg,,same,same
43,0,1657293684164,NA,NA,NA,NA,NA,NA,NA,NA,NA,NA,NA,html-button-response,48,172586,0.0-7.0-0.38,0,same,NA,NA,,,,2374,,,,"<p><span>Aike <i class=""fa-solid fa-robot robot1  inline-icon""></i></span> thinks the image is <span>safe <i class=""fa-solid fa-seedling safe  inline-icon""></i></span> and tells us where it is looking at.</p><div class=""robot-label-img""><div class=""stack-img""><i class=""fa-solid fa-robot robot1 fa-3x stack-img-robot""></i><span class=""fa-stack fa-2x stack-img-bubble""><i class=""fa-solid fa-comment fa-stack-2x""></i><i class=""fa-solid fa-seedling safe fa-stack-1x""></i></span></div><img src=/static/stimuli/ax_sal_46.svg></div><div class=""prompt""><div class=""stack-img""><i class=""fa-brands fa-android robot2 fa-3x stack-img-robot""></i><span class=""fa-stack fa-2x stack-img-bubble""><i class=""fa-solid fa-comment fa-stack-2x""></i><i class=""fa-solid fa-seedling safe fa-stack-1x""></i></span></div></div>",results,safe,safe,46,,/static/stimuli/ax_sal_46.svg,,same,same
